timestamp,C0,C1,C2,C3,C4,C5,C6,C7,C8,C9,C10,C11,Ax,Ay,Az,Gr,Gp,Fx_norm,Fy_norm,Fz_norm
1727362494.65495,504.0,456.0,556.0,448.0,652.0,423.0,654.0,656.0,593.0,568.0,579.0,529.0,-0.0947265625,0.01171875,0.98876953125,0.4878048896789551,-0.4878048896789551,0.4602113124108417,-9.891583452211128e-05,5.147098416547789
1727362494.6618924,504.0,456.0,556.0,448.0,652.0,423.0,654.0,656.0,593.0,568.0,579.0,529.0,-0.09765625,0.01220703125,0.98974609375,0.3048780560493469,-1.158536672592163,0.4602113124108417,-9.891583452211128e-05,5.147098416547789
1727362494.6648812,504.0,456.0,556.0,448.0,652.0,423.0,653.0,656.0,593.0,568.0,579.0,529.0,-0.09130859375,0.009765625,0.9921875,0.1219512224197387,-1.2804877758026123,0.4602113124108417,-9.891583452211128e-05,5.147098416547789
1727362494.6678722,504.0,456.0,556.0,448.0,652.0,423.0,653.0,656.0,593.0,568.0,579.0,529.0,-0.09130859375,0.009765625,0.9921875,0.1219512224197387,-1.2804877758026123,0.4602113124108417,-9.891583452211128e-05,5.147098416547789
1727362494.6698654,504.0,456.0,556.0,448.0,652.0,423.0,653.0,656.0,593.0,568.0,579.0,529.0,-0.09228515625,0.01513671875,0.98974609375,0.2439024448394775,-1.4634146690368652,0.4602113124108417,-9.891583452211128e-05,5.147098416547789
1727362494.670861,504.0,456.0,556.0,448.0,652.0,423.0,653.0,656.0,593.0,568.0,579.0,529.0,-0.09228515625,0.0146484375,0.9912109375,0.0,-0.7317073345184326,0.4602113124108417,-9.891583452211128e-05,5.147098416547789
1727362494.7311268,504.0,456.0,556.0,448.0,652.0,423.0,653.0,656.0,592.0,567.0,578.0,529.0,-0.091796875,0.0166015625,0.98974609375,0.3048780560493469,-0.2439024448394775,0.4602113124108417,-9.891583452211128e-05,5.147098416547789
1727362494.773858,504.0,456.0,556.0,448.0,652.0,423.0,653.0,656.0,592.0,567.0,578.0,529.0,-0.0947265625,0.01416015625,0.99462890625,0.2439024448394775,-0.0609756112098693,0.4602113124108417,-9.891583452211128e-05,5.147098416547789
1727362494.8311808,504.0,456.0,556.0,448.0,652.0,423.0,653.0,656.0,592.0,567.0,578.0,529.0,-0.0947265625,0.0126953125,0.9873046875,0.4878048896789551,-0.6707317233085632,0.4602113124108417,-9.891583452211128e-05,5.147098416547789
1727362494.8381567,504.0,456.0,556.0,448.0,652.0,423.0,653.0,656.0,592.0,567.0,578.0,529.0,-0.10009765625,0.01123046875,0.98779296875,0.3658536672592163,-0.8536585569381714,0.4602113124108417,-9.891583452211128e-05,5.147098416547789
1727362494.8411465,504.0,456.0,556.0,448.0,652.0,423.0,653.0,656.0,592.0,567.0,578.0,529.0,-0.10009765625,0.01123046875,0.98779296875,0.3658536672592163,-0.8536585569381714,0.4602113124108417,-9.891583452211128e-05,5.147098416547789
1727362494.8521714,504.0,456.0,556.0,448.0,652.0,423.0,653.0,656.0,592.0,567.0,578.0,529.0,-0.0908203125,0.0185546875,0.9892578125,0.0,-1.4024391174316406,0.4602113124108417,-9.891583452211128e-05,5.147098416547789
1727362494.856014,504.0,456.0,556.0,447.0,651.0,422.0,652.0,656.0,592.0,567.0,578.0,529.0,-0.0859375,0.01025390625,0.99658203125,0.1219512224197387,-0.6097561120986938,0.4602113124108417,-9.891583452211128e-05,5.147098416547789
1727362494.859208,504.0,456.0,556.0,447.0,651.0,422.0,652.0,656.0,592.0,567.0,578.0,529.0,-0.09521484375,0.013671875,0.9873046875,-0.1219512224197387,-1.0365853309631348,0.4602113124108417,-9.891583452211128e-05,5.147098416547789
1727362494.8715477,503.0,456.0,556.0,447.0,651.0,421.0,652.0,656.0,591.0,567.0,578.0,528.0,-0.0888671875,0.009765625,0.99072265625,-1.2195122241973877,-2.134146451950073,0.4602113124108417,-9.891583452211128e-05,5.147098416547789
1727362494.8775291,503.0,456.0,556.0,447.0,651.0,421.0,652.0,656.0,591.0,567.0,578.0,528.0,-0.09033203125,0.01416015625,0.99169921875,-0.792682945728302,-2.804878234863281,0.4602039800285307,0.0033519258202567,5.135747275320971
1727362494.9725046,504.0,456.0,556.0,448.0,652.0,424.0,652.0,657.0,589.0,568.0,578.0,528.0,-0.0888671875,0.0166015625,0.9951171875,-0.7317073345184326,-2.6219513416290283,0.4614192011412268,0.0332353922967189,5.126717018544936
1727362494.9794805,504.0,456.0,556.0,448.0,652.0,424.0,652.0,657.0,589.0,568.0,578.0,528.0,-0.08642578125,0.0126953125,0.98974609375,-1.0365853309631348,-2.5,0.4533303566333809,0.0424283309557774,5.117582039942939
1727362495.0325055,504.0,456.0,556.0,448.0,652.0,424.0,652.0,657.0,589.0,568.0,578.0,528.0,-0.0869140625,0.01171875,0.9892578125,-1.0365853309631348,-1.890244007110596,0.4326947931526391,0.1309361055634807,5.053688730385164
1727362495.0515118,504.0,456.0,556.0,448.0,652.0,424.0,652.0,657.0,589.0,568.0,578.0,528.0,-0.08837890625,0.017578125,0.99609375,-1.2804877758026123,-2.134146451950073,0.4397149786019972,0.1631120399429386,4.961082239657633
1727362495.054673,504.0,456.0,556.0,448.0,652.0,424.0,652.0,657.0,589.0,568.0,578.0,528.0,-0.08837890625,0.00927734375,0.99169921875,-1.097561001777649,-2.012195110321045,0.4397149786019972,0.1631120399429386,4.961082239657633
1727362495.057901,504.0,456.0,556.0,448.0,652.0,424.0,652.0,657.0,589.0,568.0,578.0,528.0,-0.09375,0.01025390625,0.9970703125,-1.4024391174316406,-1.9512195587158203,0.4339906134094151,0.175747332382311,4.906872368045649
1727362495.061087,506.0,461.0,558.0,453.0,654.0,431.0,660.0,666.0,590.0,568.0,583.0,526.0,-0.06982421875,0.0048828125,0.998046875,-2.804878234863281,6.7682929039001465,0.4270949928673324,0.1768923537803138,4.854920242510699
1727362495.0642788,506.0,461.0,558.0,453.0,654.0,431.0,660.0,666.0,590.0,568.0,583.0,526.0,-0.08349609375,-0.00048828125,1.0,-1.829268336296081,8.780488014221191,0.4270949928673324,0.1768923537803138,4.854920242510699
1727362495.0675006,509.0,466.0,560.0,458.0,657.0,436.0,681.0,674.0,615.0,582.0,589.0,552.0,-0.09423828125,0.015625,0.9775390625,-5.670732021331787,7.012195110321045,0.4213706276747503,0.1929821398002853,4.814376091298146
1727362495.1734471,507.0,459.0,559.0,453.0,654.0,424.0,697.0,670.0,643.0,601.0,608.0,606.0,-0.080078125,-0.00927734375,0.95947265625,-7.621951580047607,5.4268293380737305,0.2186387018544936,0.2213189015691869,1.9988744507845932
1727362495.2540443,507.0,459.0,559.0,453.0,654.0,424.0,697.0,670.0,643.0,601.0,608.0,606.0,-0.0859375,-0.009765625,0.9931640625,-7.560976028442383,3.658536672592163,1.0368163195435094,-0.2412369472182596,7.999277089871613
1727362495.2610197,507.0,459.0,559.0,453.0,654.0,424.0,697.0,670.0,643.0,601.0,608.0,606.0,-0.13916015625,0.01025390625,0.984375,-8.963415145874023,1.9512195587158203,1.168872439372325,-0.2618061055634808,9.156764664764625
1727362495.2640097,507.0,459.0,559.0,453.0,654.0,424.0,697.0,670.0,643.0,601.0,608.0,606.0,-0.1220703125,-0.00537109375,0.99169921875,-8.780488014221191,0.8536585569381714,1.168872439372325,-0.2618061055634808,9.156764664764625
1727362495.2669992,507.0,459.0,559.0,453.0,654.0,424.0,697.0,670.0,643.0,601.0,608.0,606.0,-0.072265625,-0.021484375,1.01611328125,-6.95121955871582,2.317073345184326,1.2573296005706136,-0.3192222824536377,9.684849457917265
1727362495.26999,502.0,448.0,548.0,437.0,644.0,352.0,701.0,668.0,650.0,601.0,618.0,612.0,-0.05712890625,-0.078125,1.69482421875,21.829269409179688,126.4024429321289,1.329718944365193,-0.3766421112696149,10.190359514978605
1727362495.26999,502.0,448.0,548.0,437.0,644.0,352.0,701.0,668.0,650.0,601.0,618.0,612.0,-0.13671875,-0.01708984375,1.3544921875,21.70731735229492,184.268295288086,1.329718944365193,-0.3766421112696149,10.190359514978605
1727362495.331125,502.0,448.0,548.0,437.0,644.0,352.0,701.0,668.0,650.0,601.0,618.0,612.0,-0.1318359375,0.00732421875,1.2275390625,34.756099700927734,207.9268341064453,1.910173680456491,-0.9408300855920116,13.0296947360913
1727362495.3371038,514.0,466.0,561.0,454.0,660.0,427.0,732.0,699.0,668.0,638.0,635.0,639.0,-0.28857421875,0.03857421875,1.4501953125,27.5,206.768295288086,1.877986790299572,-0.8960358487874466,12.809130513552068
1727362495.3529005,514.0,466.0,561.0,454.0,660.0,427.0,732.0,699.0,668.0,638.0,635.0,639.0,-0.30712890625,0.0810546875,1.43896484375,31.768293380737305,213.53659057617188,1.761991027104137,-0.8524958630527818,11.885864365192582
1727362495.356,514.0,466.0,561.0,454.0,660.0,427.0,732.0,699.0,668.0,638.0,635.0,639.0,-0.54931640625,-0.16650390625,1.17724609375,18.35365867614746,191.7073211669922,1.6860879029957203,-0.8364618972895863,11.49140042796006
1727362495.35925,514.0,466.0,561.0,454.0,660.0,427.0,732.0,699.0,668.0,638.0,635.0,639.0,-0.40185546875,0.22216796875,1.39306640625,58.963417053222656,157.01219177246094,1.6860879029957203,-0.8364618972895863,11.49140042796006
1727362495.3700426,519.0,485.0,567.0,479.0,665.0,452.0,735.0,703.0,670.0,640.0,638.0,641.0,-0.34326171875,-0.064453125,-0.0791015625,2.073170661926269,-50.73170852661133,1.4263455634807418,-0.6849196148359487,9.984684893009987
1727362495.375241,519.0,485.0,567.0,479.0,665.0,452.0,735.0,703.0,670.0,640.0,638.0,641.0,-0.24560546875,-0.02099609375,0.17724609375,-40.853660583496094,-102.3780517578125,1.3171429243937234,-0.5930338231098432,9.427100228245363
1727362495.4313447,519.0,485.0,567.0,479.0,665.0,452.0,735.0,703.0,670.0,640.0,638.0,641.0,-0.216796875,-0.017578125,0.1005859375,-47.621952056884766,-97.3780517578125,0.3475474750356634,0.0155078744650499,2.490730099857347
1727362495.4745057,519.0,485.0,567.0,479.0,665.0,452.0,735.0,703.0,670.0,640.0,638.0,641.0,-0.18994140625,-0.01513671875,-0.03564453125,-46.82926940917969,-91.76829528808594,0.0613572610556348,0.0107323823109843,0.1865811697574893
1727362495.531819,519.0,485.0,567.0,479.0,665.0,452.0,735.0,703.0,670.0,640.0,638.0,641.0,-0.30322265625,-0.0576171875,-0.24169921875,-41.28048706054688,-71.76829528808594,0.0003360342368045,0.0038294864479315,-0.0079550499286733
1727362495.5368023,519.0,485.0,567.0,479.0,665.0,452.0,735.0,703.0,670.0,640.0,638.0,641.0,-0.435546875,-0.15673828125,-0.19189453125,-37.560977935791016,-27.98780632019043,0.0003360342368045,-0.0099593295292439,0.0010492724679029
1727362495.5397918,519.0,485.0,567.0,479.0,665.0,452.0,735.0,703.0,670.0,640.0,638.0,641.0,-0.478515625,-0.2109375,-0.03369140625,-39.69512176513672,26.158536911010746,0.0130073038516405,0.0003810699001426,-0.0125692724679029
1727362495.5710423,521.0,491.0,569.0,487.0,667.0,459.0,741.0,705.0,673.0,644.0,637.0,645.0,-0.478515625,-0.2109375,-0.03369140625,-39.69512176513672,26.158536911010746,-0.0020064764621968,-0.0030649215406562,-0.0283898716119828
1727362495.6347244,521.0,491.0,569.0,487.0,667.0,459.0,741.0,705.0,673.0,644.0,637.0,645.0,-0.31640625,-1.6640625,3.5703125,-24.63414764404297,61.463417053222656,0.1658895292439372,-0.1570161768901569,0.6838951925820257
1727362495.6407032,520.0,484.0,571.0,483.0,668.0,452.0,738.0,704.0,677.0,649.0,638.0,649.0,-0.4921875,-0.2294921875,-0.45068359375,40.54878234863281,-269.6341552734375,0.2668054636233952,-0.5660629814550643,2.203770128388017
1727362495.6436932,520.0,484.0,571.0,483.0,668.0,452.0,738.0,704.0,677.0,649.0,638.0,649.0,-0.0146484375,-0.89599609375,2.59228515625,-40.73170852661133,-157.256103515625,0.2668054636233952,-0.5660629814550643,2.203770128388017
1727362495.647993,495.0,445.0,546.0,439.0,637.0,366.0,718.0,679.0,665.0,630.0,624.0,635.0,-0.0146484375,-0.89599609375,2.59228515625,-40.73170852661133,-157.256103515625,0.3298247788873039,-0.623508302425107,2.678094094151213
1727362495.649987,495.0,445.0,546.0,439.0,637.0,366.0,718.0,679.0,665.0,630.0,624.0,635.0,0.1845703125,-0.0009765625,1.51171875,-5.182927131652832,-13.719512939453123,0.4750065192582026,-0.3521567189728958,3.20389964336662
1727362495.6509836,495.0,445.0,546.0,439.0,637.0,366.0,718.0,679.0,665.0,630.0,624.0,635.0,-0.16015625,0.02294921875,0.98291015625,-2.073170661926269,21.58536720275879,0.4750065192582026,-0.3521567189728958,3.20389964336662
1727362495.6540036,500.0,446.0,549.0,434.0,642.0,362.0,704.0,675.0,646.0,610.0,621.0,629.0,-0.07861328125,0.0107421875,1.04248046875,4.146341323852539,-4.0853657722473145,0.4750065192582026,-0.3521567189728958,3.20389964336662
1727362495.6578038,500.0,446.0,549.0,434.0,642.0,362.0,704.0,675.0,646.0,610.0,621.0,629.0,-0.0947265625,0.0068359375,1.03515625,4.207317352294922,1.829268336296081,0.5625268901569187,-0.0210345649072753,3.830808844507846
1727362495.7335038,500.0,446.0,549.0,434.0,642.0,362.0,704.0,675.0,646.0,610.0,621.0,629.0,-0.10009765625,0.01123046875,1.03564453125,2.682926893234253,8.719511985778809,1.5590013552068476,0.1593438231098431,12.83970155492154
1727362495.739767,500.0,446.0,549.0,434.0,642.0,362.0,704.0,675.0,646.0,610.0,621.0,629.0,-0.11279296875,0.02392578125,1.02685546875,2.012195110321045,12.317073822021484,1.5776168473609131,-0.213165392296719,12.254904108416548
1727362495.743754,500.0,446.0,549.0,434.0,642.0,362.0,704.0,675.0,646.0,610.0,621.0,629.0,-0.1142578125,0.0126953125,1.021484375,0.7317073345184326,15.121952056884766,1.5373997289586308,-0.487969029957204,11.721378901569189
1727362495.7467449,500.0,446.0,549.0,434.0,642.0,362.0,704.0,675.0,646.0,610.0,621.0,629.0,-0.1025390625,-0.10107421875,1.0771484375,7.92682933807373,20.060976028442383,1.4949206990014268,-0.6455143366619116,11.246246718972897
1727362495.7487378,506.0,454.0,555.0,446.0,649.0,385.0,715.0,678.0,649.0,615.0,623.0,623.0,-0.1103515625,0.03759765625,1.044921875,7.92682933807373,22.68292808532715,1.4949206990014268,-0.6455143366619116,11.246246718972897
1727362495.7508528,506.0,454.0,555.0,446.0,649.0,385.0,715.0,678.0,649.0,615.0,623.0,623.0,-0.13037109375,0.06982421875,1.02490234375,13.841464042663574,23.04878044128418,1.4350927104136948,-0.7271871611982882,10.826933495007133
1727362495.7551074,506.0,454.0,555.0,446.0,649.0,385.0,715.0,678.0,649.0,615.0,623.0,623.0,-0.14599609375,0.01708984375,0.85400390625,13.35365867614746,2.743902444839477,1.3706456490727534,-0.7605724393723253,10.499827175463624
1727362495.8342834,511.0,464.0,560.0,461.0,656.0,415.0,724.0,689.0,660.0,627.0,632.0,633.0,-0.14599609375,0.01708984375,0.85400390625,13.35365867614746,2.743902444839477,0.799707631954351,-0.1622097432239657,6.245266305278174
1727362495.8412578,511.0,464.0,560.0,461.0,656.0,415.0,724.0,689.0,660.0,627.0,632.0,633.0,-0.14599609375,0.05908203125,0.86572265625,9.87804889678955,-5.792683124542236,0.7262496148359486,-0.1691866761768901,5.562042225392297
1727362495.843251,511.0,464.0,560.0,461.0,656.0,415.0,724.0,689.0,660.0,627.0,632.0,633.0,-0.15283203125,0.06396484375,0.86279296875,7.195122241973877,-12.987805366516112,0.7262496148359486,-0.1691866761768901,5.562042225392297
1727362495.84724,511.0,464.0,560.0,461.0,656.0,415.0,724.0,689.0,660.0,627.0,632.0,633.0,-0.16015625,0.05517578125,0.8388671875,2.987804889678955,-20.2439022064209,0.6837339514978602,-0.1749748930099857,5.235030442225393
1727362495.8492308,511.0,464.0,560.0,461.0,656.0,415.0,724.0,689.0,660.0,627.0,632.0,633.0,-0.16015625,0.05517578125,0.8388671875,2.987804889678955,-20.2439022064209,0.6837339514978602,-0.1749748930099857,5.235030442225393
1727362495.8515036,511.0,464.0,560.0,461.0,656.0,415.0,724.0,689.0,660.0,627.0,632.0,633.0,-0.15478515625,0.04833984375,0.85009765625,-1.3414634466171265,-33.17073059082031,0.6458153637660485,-0.1646708987161198,4.912466362339516
1727362495.8551245,510.0,466.0,560.0,460.0,655.0,425.0,722.0,681.0,664.0,631.0,632.0,635.0,-0.07470703125,-0.03125,1.08544921875,0.2439024448394775,-35.0,0.6067695007132669,-0.153214607703281,4.587575106990015
1727362495.857818,510.0,466.0,560.0,460.0,655.0,425.0,722.0,681.0,664.0,631.0,632.0,635.0,-0.056640625,0.0126953125,1.0791015625,4.329268455505371,-27.68292808532715,0.6067695007132669,-0.153214607703281,4.587575106990015
1727362495.9338186,510.0,466.0,560.0,460.0,655.0,425.0,722.0,681.0,664.0,631.0,632.0,635.0,-0.01953125,0.041015625,1.06201171875,3.04878044128418,-18.59756088256836,0.3681830385164051,-0.0270145221112696,1.9879190442225396
1727362495.942787,510.0,466.0,560.0,460.0,655.0,425.0,722.0,681.0,664.0,631.0,632.0,635.0,-0.009765625,0.0322265625,1.029296875,0.2439024448394775,-9.69512176513672,0.3508926961483595,-0.0155303138373751,1.9337371184022825
1727362495.9463463,510.0,466.0,560.0,460.0,655.0,425.0,722.0,681.0,664.0,631.0,632.0,635.0,-0.05029296875,0.015625,1.02685546875,-0.7317073345184326,-2.804878234863281,0.3393487018544935,-0.0120818972895863,1.913405306704708
1727362495.9493463,510.0,466.0,560.0,460.0,655.0,425.0,722.0,681.0,664.0,631.0,632.0,635.0,-0.0830078125,0.0048828125,1.00146484375,-0.792682945728302,-0.1219512224197387,0.3393487018544935,-0.0120818972895863,1.913405306704708
1727362495.9503434,509.0,471.0,559.0,468.0,654.0,447.0,700.0,675.0,635.0,586.0,602.0,542.0,-0.0908203125,0.00537109375,0.9921875,-0.6097561120986938,0.1219512224197387,0.3312891583452211,-0.0063373751783166,1.90653272467903
1727362495.9513464,509.0,471.0,559.0,468.0,654.0,447.0,700.0,675.0,635.0,586.0,602.0,542.0,-0.0908203125,0.00537109375,0.9921875,-0.6097561120986938,0.1219512224197387,0.3312891583452211,-0.0063373751783166,1.90653272467903
1727362495.9547927,509.0,471.0,559.0,468.0,654.0,447.0,700.0,675.0,635.0,586.0,602.0,542.0,-0.0966796875,0.013671875,1.0,0.0,-2.987804889678955,0.3312378601997147,0.0005594721825962,1.8975216690442227
1727362495.9578042,509.0,471.0,559.0,468.0,654.0,447.0,700.0,675.0,635.0,586.0,602.0,542.0,-0.09619140625,0.01025390625,0.9990234375,0.4268292784690857,-3.658536672592163,0.3312378601997147,0.0005594721825962,1.8975216690442227
1727362496.05382,511.0,477.0,562.0,475.0,657.0,453.0,700.0,674.0,631.0,582.0,601.0,534.0,-0.0888671875,0.00146484375,0.98974609375,1.585365891456604,-5.182927131652832,0.4831893865905848,0.3080196148359487,5.297120627674751
1727362496.0607934,511.0,477.0,562.0,475.0,657.0,453.0,700.0,674.0,631.0,582.0,601.0,534.0,-0.09130859375,-0.00244140625,0.998046875,2.2560975551605225,-5.792683124542236,0.5005896576319544,0.1849876176890157,5.058841840228246
1727362496.0637836,511.0,477.0,562.0,475.0,657.0,453.0,700.0,674.0,631.0,582.0,601.0,534.0,-0.0830078125,-0.0009765625,0.9921875,2.804878234863281,-6.280488014221191,0.5005896576319544,0.1849876176890157,5.058841840228246
1727362496.0667732,511.0,477.0,562.0,475.0,657.0,453.0,700.0,674.0,631.0,582.0,601.0,534.0,-0.08056640625,0.001953125,0.9931640625,4.0853657722473145,-6.829268455505371,0.5040887589158345,0.1343990870185449,4.8875972182596295
1727362496.069764,511.0,477.0,562.0,475.0,657.0,453.0,700.0,674.0,631.0,582.0,601.0,534.0,-0.080078125,0.00390625,0.98876953125,4.390244007110596,-6.95121955871582,0.5040887589158345,0.1343990870185449,4.8875972182596295
1727362496.0707605,511.0,477.0,562.0,475.0,657.0,453.0,700.0,674.0,631.0,582.0,601.0,534.0,-0.0810546875,0.00732421875,0.990234375,4.939024448394775,-7.560976028442383,0.5099377032810272,0.0975957346647646,4.788616504992867
1727362496.1523302,514.0,482.0,564.0,480.0,660.0,458.0,704.0,677.0,631.0,581.0,601.0,531.0,-0.07666015625,0.01416015625,0.98876953125,1.890244007110596,-3.353658676147461,0.3134345506419401,0.1066406276747503,3.5594974893009987
1727362496.1734543,514.0,482.0,564.0,480.0,660.0,458.0,704.0,677.0,631.0,581.0,601.0,531.0,-0.07666015625,0.01416015625,0.98876953125,1.890244007110596,-3.353658676147461,0.299679942938659,0.1882418544935806,3.4848021398002853
1727362496.2538185,514.0,482.0,564.0,480.0,660.0,458.0,704.0,677.0,631.0,581.0,601.0,531.0,-0.07958984375,0.0146484375,0.98486328125,1.7073171138763428,-3.353658676147461,0.3479859201141227,0.2642004992867332,3.9463689300998577
1727362496.260794,514.0,482.0,564.0,480.0,660.0,458.0,704.0,677.0,631.0,581.0,601.0,531.0,-0.06640625,0.0205078125,0.98583984375,0.4878048896789551,-2.682926893234253,0.354830242510699,0.2573194436519258,4.067943694721826
1727362496.2637837,515.0,484.0,564.0,482.0,660.0,462.0,705.0,677.0,626.0,579.0,601.0,524.0,-0.076171875,0.01171875,0.98486328125,-0.6097561120986938,-1.7682926654815674,0.354830242510699,0.2573194436519258,4.067943694721826
1727362496.2657769,515.0,484.0,564.0,482.0,660.0,462.0,705.0,677.0,626.0,579.0,601.0,524.0,-0.06591796875,0.01611328125,0.9892578125,-2.682926893234253,-0.1219512224197387,0.3501818687589159,0.2596264764621969,4.128857446504993
1727362496.2687669,514.0,484.0,565.0,482.0,661.0,463.0,704.0,676.0,624.0,579.0,597.0,520.0,-0.0732421875,0.0078125,0.99658203125,-0.0609756112098693,-0.1219512224197387,0.3501818687589159,0.2596264764621969,4.128857446504993
1727362496.3324993,514.0,484.0,565.0,482.0,661.0,463.0,704.0,676.0,624.0,579.0,597.0,520.0,-0.08642578125,0.0107421875,0.99951171875,1.2804877758026123,0.3048780560493469,0.3663302710413695,0.2159408559201141,4.108922881597718
1727362496.3501506,514.0,483.0,565.0,483.0,661.0,463.0,704.0,678.0,624.0,578.0,594.0,521.0,-0.0703125,0.0146484375,0.98779296875,-3.1097562313079834,1.5243902206420898,0.3963651925820257,0.175693937232525,3.9357712838801713
1727362496.3532825,514.0,483.0,565.0,483.0,661.0,463.0,704.0,678.0,624.0,578.0,594.0,521.0,-0.0673828125,0.015625,0.99267578125,-3.963414669036865,2.865853786468506,0.3963651925820257,0.175693937232525,3.9357712838801713
1727362496.363978,514.0,485.0,566.0,484.0,662.0,464.0,707.0,682.0,627.0,582.0,594.0,535.0,-0.07763671875,0.005859375,1.00146484375,-3.5975611209869385,5.4268293380737305,0.4010062339514979,0.1963662482168331,3.8502508559201134
1727362496.3673792,514.0,485.0,566.0,484.0,662.0,464.0,707.0,682.0,627.0,582.0,594.0,535.0,-0.08447265625,0.00537109375,0.974609375,-0.3658536672592163,8.109756469726562,0.3917900855920114,0.2136010556348074,3.839063523537804
1727362496.3754988,514.0,485.0,566.0,484.0,662.0,464.0,707.0,682.0,627.0,582.0,594.0,535.0,-0.10009765625,-0.0029296875,0.95361328125,0.1829268336296081,4.817073345184326,0.3872149928673324,0.251526362339515,3.793880912981456
1727362496.378487,514.0,481.0,566.0,478.0,661.0,460.0,708.0,681.0,637.0,590.0,604.0,578.0,-0.091796875,0.0048828125,0.966796875,0.3048780560493469,4.45121955871582,0.3872149928673324,0.251526362339515,3.793880912981456
1727362496.4728024,514.0,481.0,566.0,478.0,661.0,460.0,708.0,681.0,637.0,590.0,604.0,578.0,-0.07958984375,0.0185546875,0.994140625,-0.7317073345184326,2.743902444839477,0.1885305135520684,0.4512967475035664,2.3588358202567763
1727362496.4777887,514.0,481.0,566.0,478.0,661.0,460.0,708.0,681.0,637.0,590.0,604.0,578.0,-0.09130859375,0.01025390625,0.99267578125,-3.2926831245422363,4.45121955871582,0.1931935378031384,0.451278544935806,2.2440627960057062
1727362496.5538197,514.0,481.0,566.0,478.0,661.0,460.0,708.0,681.0,637.0,590.0,604.0,578.0,-0.06787109375,-0.00634765625,1.0009765625,-4.329268455505371,7.012195110321045,0.4587921683309557,0.5606891868758916,3.9525191726105566
1727362496.560794,514.0,481.0,566.0,478.0,661.0,460.0,708.0,681.0,637.0,590.0,604.0,578.0,-0.06787109375,-0.00634765625,1.0009765625,-4.329268455505371,7.012195110321045,0.5127125677603424,0.623973694721826,4.548074664764623
1727362496.5647814,514.0,481.0,566.0,478.0,661.0,460.0,708.0,681.0,637.0,590.0,604.0,578.0,-0.07275390625,0.0029296875,0.9833984375,-6.097560882568359,9.45121955871582,0.5552282310984308,0.6297558487874465,4.843642439372325
1727362496.567773,504.0,463.0,557.0,462.0,649.0,430.0,698.0,675.0,631.0,585.0,603.0,580.0,-0.10693359375,-0.0556640625,0.98681640625,-11.036585807800291,0.2439024448394775,0.5552282310984308,0.6297558487874465,4.843642439372325
1727362496.5687685,504.0,463.0,557.0,462.0,649.0,430.0,698.0,675.0,631.0,585.0,603.0,580.0,-0.0791015625,-0.029296875,1.06005859375,-5.792683124542236,5.487804889678955,0.5552282310984308,0.6297558487874465,4.843642439372325
1727362496.632764,491.0,443.0,542.0,441.0,633.0,359.0,687.0,666.0,623.0,578.0,601.0,568.0,-0.0751953125,0.08837890625,1.23095703125,14.14634132385254,38.78048706054688,1.4527861055634808,0.9479071184022826,12.052345820256775
1727362496.6377473,491.0,443.0,542.0,441.0,633.0,359.0,687.0,666.0,623.0,578.0,601.0,568.0,-0.05224609375,-0.05810546875,2.0458984375,-0.4878048896789551,147.31707763671875,1.5044299714693297,1.0077444079885878,12.61845212553495
1727362496.640737,491.0,443.0,542.0,441.0,633.0,359.0,687.0,666.0,623.0,578.0,601.0,568.0,-0.0126953125,-0.18408203125,1.92919921875,-10.609756469726562,208.6585388183593,1.536455634807418,1.0549209272467903,13.132838302425109
1727362496.643727,508.0,454.0,546.0,444.0,652.0,362.0,721.0,675.0,655.0,613.0,625.0,612.0,0.03857421875,0.158203125,2.48095703125,17.2560977935791,266.2804870605469,1.536455634807418,1.0549209272467903,13.132838302425109
1727362496.6526997,508.0,454.0,546.0,444.0,652.0,362.0,721.0,675.0,655.0,613.0,625.0,612.0,0.111328125,-0.08203125,2.4951171875,17.926830291748047,342.5,1.632935691868759,1.0848650641940087,13.841774022824538
1727362496.6560016,508.0,454.0,546.0,444.0,652.0,362.0,721.0,675.0,655.0,613.0,625.0,612.0,0.1630859375,0.34912109375,3.01708984375,13.90243911743164,405.3658752441406,1.7019651783166907,1.0722443223965763,14.07707002853067
1727362496.6592083,508.0,454.0,546.0,444.0,652.0,362.0,721.0,675.0,655.0,613.0,625.0,612.0,-0.46142578125,0.61865234375,2.19580078125,63.10975646972656,471.2804870605469,1.7019651783166907,1.0722443223965763,14.07707002853067
1727362496.66309,523.0,479.0,556.0,473.0,667.0,443.0,747.0,711.0,671.0,644.0,637.0,631.0,-0.5556640625,0.37939453125,2.2431640625,52.3780517578125,449.268310546875,1.7537629386590587,1.0619039229671898,14.231072439372326
1727362496.6661558,523.0,479.0,556.0,473.0,667.0,443.0,747.0,711.0,671.0,644.0,637.0,631.0,-0.5556640625,0.37939453125,2.2431640625,52.3780517578125,449.268310546875,1.818231968616263,1.0481223965763198,14.40543580599144
1727362496.7337265,523.0,479.0,556.0,473.0,667.0,443.0,747.0,711.0,671.0,644.0,637.0,631.0,0.85205078125,0.0283203125,0.2734375,45.3658561706543,237.9268341064453,1.43083272467903,1.7590504707560628,12.177600627674751
1727362496.8318117,523.0,479.0,556.0,473.0,667.0,443.0,747.0,711.0,671.0,644.0,637.0,631.0,2.22705078125,-0.361328125,-1.76220703125,-18.475610733032227,187.0731811523437,0.0267985449358059,0.0463567332382311,0.1434828958630528
1727362496.8377905,523.0,479.0,556.0,473.0,667.0,443.0,747.0,711.0,671.0,644.0,637.0,631.0,1.27197265625,0.564453125,-1.77587890625,-58.47561264038086,193.4146423339844,0.0245439800285306,-0.0065242653352353,0.0170244365192582
1727362496.839786,523.0,479.0,556.0,473.0,667.0,443.0,747.0,711.0,671.0,644.0,637.0,631.0,2.09765625,1.171875,2.1337890625,-72.19512176513672,51.70731735229492,0.001521940085592,0.0015248787446504,-0.0191819686162624
1727362496.8427746,523.0,479.0,556.0,473.0,667.0,443.0,747.0,711.0,671.0,644.0,637.0,631.0,2.654296875,0.8837890625,0.970703125,-30.24390411376953,-47.5,0.001521940085592,0.0015248787446504,-0.0191819686162624
1727362496.8457637,523.0,479.0,556.0,473.0,667.0,443.0,747.0,711.0,671.0,644.0,637.0,631.0,2.7802734375,0.658203125,0.69677734375,4.817073345184326,-139.39024353027344,0.003813152639087,0.0038246219686162,-0.0238035948644793
1727362496.8501642,521.0,493.0,561.0,491.0,668.0,465.0,747.0,710.0,665.0,640.0,634.0,629.0,0.3251953125,0.28173828125,0.931640625,28.170732498168945,-328.2317199707031,0.0049770756062767,0.0084229243937232,-0.0100744793152639
1727362496.853335,523.0,497.0,564.0,495.0,670.0,468.0,745.0,712.0,671.0,647.0,637.0,638.0,-0.783203125,-0.12744140625,0.33056640625,47.68292617797852,-135.6707305908203,0.0049770756062767,0.0084229243937232,-0.0100744793152639
1727362496.8564618,523.0,497.0,564.0,495.0,670.0,468.0,745.0,712.0,671.0,647.0,637.0,638.0,-1.00048828125,-0.1083984375,0.24365234375,48.963417053222656,-97.5,0.0084468758915834,0.0003762054208273,-0.0283686305278174
1727362496.9739752,524.0,499.0,566.0,495.0,671.0,470.0,747.0,715.0,674.0,649.0,639.0,642.0,-1.21044921875,-0.12109375,0.2353515625,52.560977935791016,-54.26829528808594,0.0003506847360912,-0.0030637089871611,-0.0011293580599144
1727362497.0312448,524.0,499.0,566.0,495.0,671.0,470.0,747.0,715.0,674.0,649.0,639.0,642.0,-1.416015625,-0.17138671875,0.15185546875,58.41463470458984,-14.085366249084473,-0.0031117831669044,0.0061316690442225,-0.0102059486447931
1727362497.0362258,524.0,499.0,566.0,495.0,671.0,470.0,747.0,715.0,674.0,649.0,639.0,642.0,-1.63720703125,-0.265625,-0.16357421875,63.23170852661133,24.024391174316406,0.001514607703281,0.0084265620542082,0.0010325677603423
1727362497.0392158,524.0,499.0,566.0,495.0,671.0,470.0,747.0,715.0,674.0,649.0,639.0,642.0,-1.77099609375,-0.3818359375,-0.28125,63.59756088256836,70.91463470458984,0.001514607703281,0.0084265620542082,0.0010325677603423
1727362497.0412097,524.0,499.0,566.0,495.0,671.0,470.0,747.0,715.0,674.0,649.0,639.0,642.0,-2.0234375,-0.65185546875,-0.33251953125,51.219512939453125,130.91464233398438,0.006097032810271,0.0049805706134094,-0.0034201997146932
1727362497.046193,524.0,499.0,566.0,495.0,671.0,470.0,747.0,715.0,674.0,649.0,639.0,642.0,-2.0234375,-0.65185546875,-0.33251953125,51.219512939453125,130.91464233398438,-0.0019625106990014,-0.0053622539229671,-0.0079506419400855
1727362497.04719,524.0,495.0,568.0,491.0,671.0,467.0,745.0,716.0,673.0,648.0,641.0,643.0,-0.1728515625,-0.498046875,1.44287109375,-33.84146499633789,-5.060975551605225,-0.0019625106990014,-0.0053622539229671,-0.0079506419400855
1727362497.0514448,490.0,445.0,534.0,449.0,630.0,415.0,704.0,667.0,637.0,585.0,608.0,596.0,-0.09228515625,0.083984375,0.9833984375,-0.4268292784690857,30.426830291748047,0.002656547788873,0.0015333666191155,-0.005652910128388
1727362497.1337912,490.0,445.0,534.0,449.0,630.0,415.0,704.0,667.0,637.0,585.0,608.0,596.0,-0.158203125,-0.08203125,0.96875,-0.792682945728302,27.073171615600582,0.0025979315263908,-0.0076535092724679,-0.0102651355206847
1727362497.150839,497.0,446.0,541.0,450.0,640.0,402.0,707.0,665.0,641.0,590.0,613.0,595.0,-0.17919921875,-0.0439453125,0.9404296875,6.585366249084473,18.475610733032227,0.0106428245363766,-0.0041917403708987,0.0034486875891583
1727362497.1717722,497.0,446.0,541.0,450.0,640.0,402.0,707.0,665.0,641.0,590.0,613.0,595.0,-0.17431640625,-0.0517578125,0.9443359375,6.95121955871582,15.609756469726562,0.0164184736091298,0.0038501141226818,0.0010944079885877
1727362497.1767523,497.0,446.0,541.0,450.0,640.0,402.0,707.0,665.0,641.0,590.0,613.0,595.0,-0.1796875,-0.03173828125,0.94384765625,8.59756088256836,9.329268455505373,0.0071803566333808,-0.0076462339514978,-0.003515763195435
1727362497.2328324,497.0,446.0,541.0,450.0,640.0,402.0,707.0,665.0,641.0,590.0,613.0,595.0,-0.19580078125,0.00244140625,0.84375,7.0731706619262695,0.1219512224197387,-0.0020211412268188,-0.004206305278174,-0.0372886162624821
1727362497.239545,497.0,446.0,541.0,450.0,640.0,402.0,707.0,665.0,641.0,590.0,613.0,595.0,-0.18310546875,-0.001953125,0.8388671875,2.5609755516052246,-14.817073822021484,0.0048891440798858,-0.0007566761768901,0.0033514122681883
1727362497.2418072,497.0,448.0,541.0,450.0,642.0,411.0,703.0,664.0,638.0,594.0,610.0,594.0,-0.115234375,-0.06005859375,1.12158203125,2.804878234863281,25.0,-0.0019844935805991,-0.001904122681883,-0.0125440228245363
1727362497.2454922,497.0,448.0,541.0,450.0,642.0,411.0,703.0,664.0,638.0,594.0,610.0,594.0,-0.12939453125,0.0966796875,1.01904296875,15.30487823486328,35.73170852661133,0.0037545221112696,-0.0053549786019971,0.0010394721825962
1727362497.2504804,497.0,448.0,541.0,450.0,642.0,411.0,703.0,664.0,638.0,594.0,610.0,594.0,-0.1591796875,0.0126953125,0.93505859375,7.378048896789551,37.31707382202149,0.0048964621968616,0.0038416119828815,-0.0147925392296718
1727362497.2526417,497.0,448.0,541.0,450.0,642.0,411.0,703.0,664.0,638.0,594.0,610.0,594.0,-0.18994140625,-0.0224609375,0.88037109375,4.390244007110596,30.670732498168945,0.0048964621968616,0.0038416119828815,-0.0147925392296718
1727362497.253639,500.0,447.0,545.0,455.0,648.0,417.0,709.0,671.0,647.0,595.0,615.0,607.0,-0.16943359375,0.06005859375,0.85400390625,-4.207317352294922,-36.64634323120117,0.0048964621968616,0.0038416119828815,-0.0147925392296718
1727362497.3338025,500.0,447.0,545.0,455.0,648.0,417.0,709.0,671.0,647.0,595.0,615.0,607.0,-0.1484375,0.01513671875,1.10791015625,-6.52439022064209,-46.28048706054688,0.0014559914407988,-0.004203880171184,-0.0283408416547788
1727362497.3397806,500.0,447.0,545.0,455.0,648.0,417.0,709.0,671.0,647.0,595.0,615.0,607.0,-0.12109375,-0.0224609375,1.1513671875,-7.012195110321045,-39.69512176513672,-0.0054909272467903,0.0003931954350927,0.0191907132667617
1727362497.3417728,501.0,451.0,545.0,453.0,647.0,417.0,705.0,667.0,641.0,592.0,615.0,607.0,-0.12109375,-0.0224609375,1.1513671875,-7.012195110321045,-39.69512176513672,-0.0054909272467903,0.0003931954350927,0.0191907132667617
1727362497.3447623,501.0,451.0,545.0,453.0,647.0,417.0,705.0,667.0,641.0,592.0,615.0,607.0,-0.0908203125,-0.02392578125,1.1337890625,-4.0853657722473145,-19.45121955871582,-0.0054909272467903,0.0003931954350927,0.0191907132667617
1727362497.3487492,501.0,451.0,545.0,453.0,647.0,417.0,705.0,667.0,641.0,592.0,615.0,607.0,-0.11669921875,-0.0361328125,1.06396484375,1.5243902206420898,-9.756097793579102,0.0049331098430813,-0.0053549786019971,-0.0192547503566333
1727362497.3709605,501.0,451.0,545.0,453.0,647.0,417.0,705.0,667.0,641.0,592.0,615.0,607.0,-0.13232421875,-0.01708984375,1.02880859375,6.219512462615967,-4.756097793579102,-0.0008572039942938,-0.0053513266761768,-0.005676005706134
1727362497.3759468,501.0,455.0,545.0,454.0,648.0,420.0,699.0,665.0,639.0,590.0,612.0,602.0,-0.12646484375,0.03515625,0.97314453125,-5.4268293380737305,-15.731707572937012,0.0037691868758915,-0.0019065620542082,-0.0215243937232525
1727362497.4539626,501.0,455.0,545.0,454.0,648.0,420.0,699.0,665.0,639.0,590.0,612.0,602.0,-0.12060546875,0.04736328125,0.97314453125,-10.12195110321045,-15.85365867614746,0.0014633095577746,-0.0007591012838801,-0.0304605278174037
1727362497.4619336,501.0,455.0,545.0,454.0,648.0,420.0,699.0,665.0,639.0,590.0,612.0,602.0,-0.12451171875,0.0390625,0.98583984375,-14.268293380737305,-15.54878044128418,0.0026125820256776,-0.0030552211126961,-0.0124079600570613
1727362497.4643676,501.0,455.0,545.0,454.0,648.0,420.0,699.0,665.0,639.0,590.0,612.0,602.0,-0.11865234375,0.01513671875,0.99560546875,-15.30487823486328,-14.87804889678955,0.0026125820256776,-0.0030552211126961,-0.0124079600570613
1727362497.4683535,501.0,455.0,545.0,454.0,648.0,420.0,699.0,665.0,639.0,590.0,612.0,602.0,-0.1181640625,-0.03271484375,1.025390625,-14.45121955871582,-14.085366249084473,0.0003067189728958,-0.004205092724679,-0.0215737803138373
1727362497.4703474,501.0,455.0,545.0,454.0,648.0,420.0,699.0,665.0,639.0,590.0,612.0,602.0,-0.123046875,-0.00390625,0.99951171875,-10.609756469726562,-12.439024925231934,-0.0054689443651925,0.0003931954350927,-0.0237122111269614
1727362497.4713447,501.0,455.0,545.0,454.0,648.0,420.0,699.0,665.0,639.0,590.0,612.0,602.0,-0.11962890625,0.01318359375,0.97802734375,-10.670731544494627,-12.80487823486328,-0.0054689443651925,0.0003931954350927,-0.0237122111269614
1727362497.5337925,503.0,460.0,548.0,460.0,650.0,433.0,697.0,668.0,637.0,590.0,608.0,597.0,-0.13037109375,-0.02587890625,0.943359375,-12.37804889678955,-0.8536585569381714,0.0025832667617689,-0.004206305278174,-0.0011903423680456
1727362497.541648,504.0,469.0,551.0,476.0,652.0,449.0,702.0,674.0,634.0,583.0,608.0,576.0,-0.10693359375,-0.03271484375,0.99609375,-11.52439022064209,-2.5609755516052246,-0.0008425534950071,-0.004205092724679,-0.0079504992867332
1727362497.5466304,504.0,469.0,551.0,476.0,652.0,449.0,702.0,674.0,634.0,583.0,608.0,576.0,-0.087890625,-0.048828125,0.9990234375,-7.5,-1.0365853309631348,-0.0008572039942938,0.0038403994293865,-0.0169617118402282
1727362497.5486236,504.0,469.0,551.0,476.0,652.0,449.0,702.0,674.0,634.0,583.0,608.0,576.0,-0.10009765625,-0.02197265625,0.9609375,-6.829268455505371,-2.012195110321045,-0.0008572039942938,0.0038403994293865,-0.0169617118402282
1727362497.5496202,504.0,469.0,551.0,476.0,652.0,449.0,702.0,674.0,634.0,583.0,608.0,576.0,-0.1083984375,-0.0146484375,1.00244140625,-7.195122241973877,-2.195122003555298,-0.0008572039942938,0.0038403994293865,-0.0169617118402282
1727362497.550007,504.0,469.0,551.0,476.0,652.0,449.0,702.0,674.0,634.0,583.0,608.0,576.0,-0.08837890625,-0.0205078125,1.025390625,-6.52439022064209,-1.158536672592163,0.0025832667617689,0.0061401569186875,-0.0237846932952924
1727362497.553275,503.0,461.0,548.0,469.0,649.0,428.0,703.0,673.0,634.0,579.0,609.0,572.0,-0.0859375,-0.01953125,1.05078125,8.59756088256836,13.47560977935791,0.0025832667617689,0.0061401569186875,-0.0237846932952924
1727362497.5564172,503.0,461.0,548.0,469.0,649.0,428.0,703.0,673.0,634.0,579.0,609.0,572.0,-0.06591796875,-0.03125,1.0537109375,11.341464042663574,17.68292808532715,-0.0031630813124108,-0.001902910128388,-0.0079151069900142
1727362497.6342304,503.0,461.0,548.0,469.0,649.0,428.0,703.0,673.0,634.0,579.0,609.0,572.0,-0.0830078125,0.017578125,1.07568359375,11.40243911743164,23.231708526611328,0.0060530670470756,0.0049939229671897,0.0055347218259629
1727362497.6422014,503.0,461.0,548.0,469.0,649.0,428.0,703.0,673.0,634.0,579.0,609.0,572.0,-0.03515625,0.06103515625,1.099609375,8.292682647705078,32.0121955871582,-0.0031484165477888,-0.0064975606276747,-0.0237589015691868
1727362497.6451912,503.0,461.0,548.0,469.0,649.0,428.0,703.0,673.0,634.0,579.0,609.0,572.0,0.06201171875,0.1865234375,1.13916015625,3.5975611209869385,37.31707382202149,0.0002700713266761,0.0049927104136947,-0.0080094864479315
1727362497.6481817,503.0,461.0,548.0,469.0,649.0,428.0,703.0,673.0,634.0,579.0,609.0,572.0,-0.126953125,-0.01611328125,1.4853515625,1.6463415622711182,54.024391174316406,0.0002700713266761,0.0049927104136947,-0.0080094864479315
1727362497.650175,503.0,461.0,548.0,469.0,649.0,428.0,703.0,673.0,634.0,579.0,609.0,572.0,-0.234375,0.048828125,1.8076171875,4.146341323852539,79.32926940917969,-0.0020431241084165,-0.0007518259629101,-0.0056667047075606
1727362497.651172,503.0,461.0,548.0,469.0,649.0,428.0,703.0,673.0,634.0,579.0,609.0,572.0,-0.1162109375,-0.20703125,1.7734375,29.573171615600582,105.12195587158205,-0.0020431241084165,-0.0007518259629101,-0.0056667047075606
1727362497.6538346,504.0,448.0,551.0,462.0,655.0,429.0,709.0,671.0,634.0,588.0,615.0,599.0,-0.2998046875,0.26611328125,1.9462890625,58.53658676147461,272.68292236328125,-0.0020431241084165,-0.0007518259629101,-0.0056667047075606
1727362497.657142,504.0,448.0,551.0,462.0,655.0,429.0,709.0,671.0,634.0,588.0,615.0,599.0,0.0068359375,-0.29736328125,2.29736328125,56.76829528808594,243.8414764404297,-0.0054982596291012,-0.0018992724679029,-0.0440911126961483
1727362497.7337666,504.0,448.0,551.0,462.0,655.0,429.0,709.0,671.0,634.0,588.0,615.0,599.0,-2.94921875,0.46435546875,1.76416015625,189.2073211669922,115.0,-0.0032070470756062,-0.0007481883024251,-0.0283129957203994
1727362497.7407422,504.0,448.0,551.0,462.0,655.0,429.0,709.0,671.0,634.0,588.0,615.0,599.0,-5.77490234375,1.810546875,1.75390625,348.7804870605469,-12.682927131652832,0.0002554208273894,-0.0064951355206847,-0.0102015549215406
1727362497.7447295,504.0,448.0,551.0,462.0,655.0,429.0,709.0,671.0,634.0,588.0,615.0,599.0,-2.03759765625,-1.12158203125,0.11474609375,283.5975646972656,-209.4512176513672,0.0002554208273894,-0.0064951355206847,-0.0102015549215406
1727362497.7472382,517.0,492.0,559.0,488.0,665.0,466.0,733.0,691.0,656.0,615.0,627.0,636.0,-2.09619140625,-1.181640625,-0.94140625,165.3048858642578,-319.756103515625,-0.0020504422253922,-0.0053440513552068,-0.0102413409415121
1727362497.750224,517.0,492.0,559.0,488.0,665.0,466.0,733.0,691.0,656.0,615.0,627.0,636.0,-3.12060546875,-1.302734375,0.18603515625,24.14634132385254,-386.4024353027344,-0.0020431241084165,0.0026953780313837,-0.019313580599144
1727362497.751221,517.0,492.0,559.0,488.0,665.0,466.0,733.0,691.0,656.0,615.0,627.0,636.0,-3.22998046875,-0.98681640625,0.21826171875,-12.37804889678955,-376.2195129394531,-0.0020431241084165,0.0026953780313837,-0.019313580599144
1727362497.753149,517.0,492.0,559.0,488.0,665.0,466.0,733.0,691.0,656.0,615.0,627.0,636.0,-3.0224609375,-0.23583984375,-0.61083984375,-127.5,40.4878044128418,-0.0020431241084165,0.0026953780313837,-0.019313580599144
1727362497.756417,519.0,495.0,563.0,492.0,668.0,470.0,749.0,708.0,666.0,632.0,639.0,651.0,-2.3876953125,-0.03857421875,-0.1640625,-142.86585998535156,105.06098175048828,-0.0008865192582025,-0.0007506134094151,-0.0101478174037089
1727362497.8537886,519.0,495.0,563.0,492.0,668.0,470.0,749.0,708.0,666.0,632.0,639.0,651.0,-1.98291015625,0.025390625,0.17626953125,-141.4634246826172,132.9268341064453,-0.0031484165477888,-0.0030552211126961,-0.0192551069900142
1727362497.8607645,519.0,495.0,563.0,492.0,668.0,470.0,749.0,708.0,666.0,632.0,639.0,651.0,-1.51171875,0.041015625,0.53173828125,-130.4268341064453,141.9512176513672,-0.0066035663338088,-0.0007591012838801,-0.0237801426533523
1727362497.8627577,519.0,495.0,563.0,492.0,668.0,470.0,749.0,708.0,666.0,632.0,639.0,651.0,-1.2705078125,0.06494140625,0.697265625,-117.5,150.3048858642578,-0.0066035663338088,-0.0007591012838801,-0.0237801426533523
1727362497.865106,519.0,495.0,563.0,492.0,668.0,470.0,749.0,708.0,666.0,632.0,639.0,651.0,-1.09130859375,0.09130859375,0.81591796875,-109.26829528808594,164.57318115234375,-0.0008572039942938,-0.0019089871611982,-0.0214802139800285
1727362497.868078,519.0,495.0,563.0,492.0,668.0,470.0,749.0,708.0,666.0,632.0,639.0,651.0,-0.8037109375,0.15380859375,0.87158203125,-105.9756088256836,184.6341552734375,-0.0008572039942938,-0.0019089871611982,-0.0214802139800285
1727362497.8710666,521.0,499.0,565.0,494.0,670.0,471.0,749.0,709.0,672.0,637.0,639.0,654.0,1.63671875,0.07666015625,0.50537109375,-104.69512176513672,290.9756164550781,0.0037838373751783,-0.0076547218259629,-0.0102366333808844
1727362497.9537692,521.0,499.0,565.0,494.0,670.0,471.0,749.0,709.0,672.0,637.0,639.0,654.0,2.83740234375,0.37353515625,0.1669921875,-95.36585235595705,243.1707305908203,-0.0008425534950071,-0.0007591012838801,-0.0192734950071326
1727362497.9607415,521.0,499.0,565.0,494.0,670.0,471.0,749.0,709.0,672.0,637.0,639.0,654.0,3.01611328125,0.416015625,0.17041015625,-66.28048706054688,201.7073211669922,0.0014486590584878,0.0026905278174037,-0.0057181312410841
1727362497.9627352,523.0,499.0,567.0,493.0,671.0,473.0,749.0,713.0,669.0,635.0,638.0,652.0,3.01611328125,0.416015625,0.17041015625,-66.28048706054688,201.7073211669922,0.0014486590584878,0.0026905278174037,-0.0057181312410841
1727362497.9657254,523.0,499.0,567.0,493.0,671.0,473.0,749.0,713.0,669.0,635.0,638.0,652.0,2.59765625,0.28466796875,0.21875,-17.13414764404297,136.8292694091797,0.0003067189728958,0.0003895577746077,-0.007943395149786
1727362497.9687152,523.0,499.0,567.0,493.0,671.0,473.0,749.0,713.0,669.0,635.0,638.0,652.0,2.11669921875,0.21630859375,0.1083984375,0.792682945728302,102.62195587158205,0.0003067189728958,0.0003895577746077,-0.007943395149786
1727362497.9707088,523.0,499.0,567.0,493.0,671.0,473.0,749.0,713.0,669.0,635.0,638.0,652.0,1.10205078125,1.61328125,2.533203125,39.93902587890625,-610.5487670898438,0.0060823823109843,0.0003883452211126,-0.0124152068473609
1727362497.9739082,519.0,476.0,563.0,466.0,664.0,433.0,750.0,712.0,671.0,646.0,643.0,660.0,0.1552734375,-1.791015625,-0.4013671875,0.3658536672592163,-205.7317047119141,0.0060823823109843,0.0003883452211126,-0.0124152068473609
1727362498.0737147,519.0,476.0,563.0,466.0,664.0,433.0,750.0,712.0,671.0,646.0,643.0,660.0,-0.208984375,-0.74658203125,5.1162109375,10.0,-234.756103515625,0.0486200285306704,0.2406277175463624,0.443883637660485
1727362498.132369,519.0,476.0,563.0,466.0,664.0,433.0,750.0,712.0,671.0,646.0,643.0,660.0,2.38232421875,0.8515625,1.904296875,4.02439022064209,-26.158536911010746,1.1925002567760343,4.117494579172611,18.3950714550642
1727362498.1376488,519.0,476.0,563.0,466.0,664.0,433.0,750.0,712.0,671.0,646.0,643.0,660.0,0.24853515625,0.16748046875,2.005859375,-38.719512939453125,99.39024353027344,0.9648141226818832,6.553345164051356,19.62719276747504
1727362498.140639,519.0,476.0,563.0,466.0,664.0,433.0,750.0,712.0,671.0,646.0,643.0,660.0,-0.14013671875,-0.251953125,0.60205078125,-15.060976028442385,97.98780822753906,0.9564406990014266,7.195602196861628,18.979981840228245
1727362498.1700387,519.0,476.0,563.0,466.0,664.0,433.0,750.0,712.0,671.0,646.0,643.0,660.0,-0.66845703125,0.05224609375,0.43798828125,-15.487805366516112,44.024391174316406,1.3013768045649072,-1.1705548930099858,7.794122867332383
1727362498.1770177,503.0,459.0,548.0,454.0,645.0,398.0,736.0,681.0,658.0,596.0,620.0,603.0,0.1162109375,0.02099609375,1.30810546875,9.45121955871582,-17.865854263305664,1.21827029957204,-1.339543152639087,7.692424165477889
1727362498.231044,508.0,467.0,553.0,463.0,649.0,433.0,721.0,678.0,640.0,575.0,601.0,525.0,-0.0791015625,-0.0302734375,1.015625,6.463414669036865,-15.731707572937012,0.8287117403708988,0.508955634807418,7.703550385164052
1727362498.239018,508.0,467.0,553.0,463.0,649.0,433.0,721.0,678.0,640.0,575.0,601.0,525.0,-0.10400390625,-0.02685546875,1.15625,-6.280488014221191,-68.71951293945312,0.7758892867332383,0.5974561340941513,7.515509358059916
1727362498.2410097,517.0,483.0,561.0,479.0,662.0,451.0,734.0,687.0,643.0,583.0,602.0,528.0,-0.0703125,-0.03076171875,1.09423828125,1.585365891456604,-75.9756088256836,0.7737446362339516,0.6963152353780314,7.295933751783167
1727362498.244,517.0,483.0,561.0,479.0,662.0,451.0,734.0,687.0,643.0,583.0,602.0,528.0,-0.0390625,0.00634765625,1.05078125,0.0609756112098693,-75.8536605834961,0.7737446362339516,0.6963152353780314,7.295933751783167
1727362498.2469893,517.0,483.0,561.0,479.0,662.0,451.0,734.0,687.0,643.0,583.0,602.0,528.0,0.0029296875,-0.0087890625,1.00830078125,2.743902444839477,-79.63414764404297,0.7474433380884451,0.7882653637660485,7.112723437945792
1727362498.2489836,517.0,483.0,561.0,479.0,662.0,451.0,734.0,687.0,643.0,583.0,602.0,528.0,0.0029296875,-0.0087890625,1.00830078125,2.743902444839477,-79.63414764404297,0.7474433380884451,0.7882653637660485,7.112723437945792
1727362498.2506657,521.0,492.0,564.0,486.0,667.0,460.0,741.0,696.0,648.0,594.0,607.0,545.0,0.13525390625,0.0439453125,0.8662109375,12.012195587158203,-44.20731735229492,0.7257244507845935,0.8411293723252498,6.841563252496434
1727362498.3337555,521.0,492.0,564.0,486.0,667.0,460.0,741.0,696.0,648.0,594.0,607.0,545.0,0.1064453125,0.0224609375,0.919921875,10.609756469726562,-39.93902587890625,0.1796306990014265,0.5774470756062767,2.699703395149786
1727362498.345451,521.0,492.0,564.0,486.0,667.0,460.0,741.0,696.0,648.0,594.0,607.0,545.0,0.0537109375,-0.0185546875,1.08544921875,15.243903160095217,-38.90243911743164,0.1693165763195435,0.5337456776034237,2.481165335235378
1727362498.3474443,521.0,492.0,564.0,486.0,667.0,460.0,741.0,696.0,648.0,594.0,607.0,545.0,0.06396484375,-0.01171875,1.08203125,15.243903160095217,-43.658538818359375,0.1693165763195435,0.5337456776034237,2.481165335235378
1727362498.3500807,522.0,495.0,566.0,491.0,669.0,465.0,741.0,700.0,650.0,590.0,606.0,535.0,0.06396484375,-0.01171875,1.08203125,15.243903160095217,-43.658538818359375,0.1509062767475036,0.5394877746077033,2.429210912981455
1727362498.353235,522.0,495.0,566.0,491.0,669.0,465.0,741.0,700.0,650.0,590.0,606.0,535.0,0.16064453125,0.03515625,0.8486328125,1.2804877758026123,-15.487805366516112,0.1509062767475036,0.5394877746077033,2.429210912981455
1727362498.3564162,522.0,495.0,566.0,491.0,669.0,465.0,741.0,700.0,650.0,590.0,606.0,535.0,0.1650390625,0.0107421875,0.87451171875,1.7682926654815674,-7.743902683258057,0.1416901283880171,0.5337396148359487,2.4157678316690445
1727362498.452445,521.0,496.0,566.0,490.0,669.0,466.0,735.0,697.0,648.0,591.0,603.0,526.0,0.1650390625,0.0107421875,0.87451171875,1.7682926654815674,-7.743902683258057,0.3705047788873039,0.3914388159771755,3.6154641369472182
1727362498.4584217,521.0,496.0,566.0,490.0,669.0,466.0,735.0,697.0,648.0,591.0,603.0,526.0,0.14990234375,-0.00634765625,0.99755859375,3.9024391174316406,2.4390244483947754,0.384310670470756,0.3925996148359487,3.694405007132669
1727362498.4604156,521.0,496.0,566.0,490.0,669.0,466.0,735.0,697.0,648.0,591.0,603.0,526.0,0.0859375,0.00341796875,1.14453125,2.5609755516052246,-3.5365853309631348,0.3923775463623395,0.388013452211127,3.7032486162624823
1727362498.4639077,521.0,496.0,566.0,490.0,669.0,466.0,735.0,697.0,648.0,591.0,603.0,526.0,0.08984375,0.0,1.130859375,1.9512195587158203,-13.109756469726562,0.3923775463623395,0.388013452211127,3.7032486162624823
1727362498.4678922,521.0,496.0,566.0,490.0,669.0,466.0,735.0,697.0,648.0,591.0,603.0,526.0,0.16162109375,0.0078125,0.943359375,2.9268293380737305,-16.40243911743164,0.4027136519258202,0.3937676890156918,3.766319343794579
1727362498.4718826,521.0,496.0,566.0,490.0,669.0,466.0,735.0,697.0,648.0,591.0,603.0,526.0,0.1845703125,0.0302734375,0.84521484375,2.6219513416290283,-13.719512939453123,0.4119078031383738,0.3891778887303851,3.84069482168331
1727362498.4760056,522.0,496.0,567.0,491.0,669.0,466.0,733.0,698.0,645.0,586.0,598.0,520.0,0.17529296875,0.0498046875,0.8583984375,2.804878234863281,7.682927131652832,0.4176395007132668,0.3891839657631954,3.8608209843081314
1727362498.5337992,522.0,496.0,567.0,491.0,669.0,466.0,733.0,698.0,645.0,586.0,598.0,520.0,0.1650390625,0.06005859375,0.853515625,2.804878234863281,7.682927131652832,0.3990166904422254,0.3340675320970043,4.2681941654778885
1727362498.5387824,522.0,496.0,567.0,491.0,669.0,466.0,733.0,698.0,645.0,586.0,598.0,520.0,0.1611328125,0.07763671875,0.88134765625,2.804878234863281,15.243903160095217,0.4105460199714693,0.3156840656205421,4.286223994293866
1727362498.5407758,522.0,496.0,567.0,491.0,669.0,466.0,733.0,698.0,645.0,586.0,598.0,520.0,0.09033203125,0.06689453125,1.0791015625,1.5243902206420898,15.609756469726562,0.4128152496433666,0.3053460912981455,4.306497318116977
1727362498.5447626,522.0,497.0,567.0,492.0,669.0,467.0,734.0,696.0,645.0,587.0,597.0,517.0,0.08984375,0.02001953125,1.07275390625,-1.9512195587158203,4.512195110321045,0.4128152496433666,0.3053460912981455,4.306497318116977
1727362498.547196,522.0,497.0,567.0,492.0,669.0,467.0,734.0,696.0,645.0,587.0,597.0,517.0,0.13232421875,0.00390625,0.986328125,-2.195122003555298,0.8536585569381714,0.4220167475035664,0.3076494864479315,4.344853951497861
1727362498.5721436,522.0,497.0,567.0,492.0,669.0,467.0,734.0,696.0,645.0,587.0,597.0,517.0,0.12841796875,0.0029296875,0.96923828125,-2.9268293380737305,9.817073822021484,0.420889457917261,0.3237550499286734,4.407801255349502
1727362498.5761297,522.0,497.0,567.0,492.0,669.0,467.0,734.0,696.0,645.0,587.0,597.0,517.0,0.12353515625,-0.00146484375,0.9677734375,-2.743902444839477,11.64634132385254,0.4139425392296719,0.3283545506419401,4.407796362339515
1727362498.6522584,522.0,497.0,567.0,492.0,669.0,467.0,734.0,696.0,645.0,587.0,597.0,517.0,0.13720703125,-0.0146484375,0.9501953125,-1.4024391174316406,12.743903160095217,0.4934986590584879,0.2421307560627675,4.228260770328102
1727362498.6582382,522.0,497.0,567.0,492.0,669.0,467.0,731.0,692.0,650.0,583.0,596.0,517.0,0.13818359375,-0.01025390625,0.9267578125,0.0,15.731707572937012,0.4923493865905849,0.232934179743224,4.244132753209701
1727362498.6602316,522.0,497.0,567.0,492.0,669.0,467.0,731.0,692.0,650.0,583.0,596.0,517.0,0.13037109375,0.01513671875,0.93212890625,0.8536585569381714,19.817073822021484,0.484253209700428,0.2329390156918688,4.278043666191156
1727362498.6642182,522.0,497.0,567.0,492.0,669.0,467.0,731.0,692.0,650.0,583.0,596.0,517.0,0.08984375,0.01904296875,1.02734375,2.134146451950073,19.939023971557617,0.484253209700428,0.2329390156918688,4.278043666191156
1727362498.6672082,522.0,497.0,567.0,492.0,669.0,467.0,731.0,692.0,650.0,583.0,596.0,517.0,0.0771484375,0.001953125,1.06689453125,2.9268293380737305,15.731707572937012,0.4658428958630528,0.2467351069900142,4.248536490727532
1727362498.6682048,522.0,497.0,567.0,492.0,669.0,467.0,731.0,692.0,650.0,583.0,596.0,517.0,0.09326171875,0.00390625,1.02490234375,3.353658676147461,12.012195587158203,0.4658428958630528,0.2467351069900142,4.248536490727532
1727362498.670733,522.0,497.0,567.0,491.0,669.0,468.0,730.0,689.0,643.0,580.0,591.0,513.0,0.0869140625,0.03564453125,0.9892578125,-1.829268336296081,11.585366249084473,0.4647302710413695,0.2708716262482168,4.252967960057062
1727362498.7531042,522.0,497.0,567.0,491.0,669.0,468.0,730.0,689.0,643.0,580.0,591.0,513.0,0.07177734375,0.015625,1.0341796875,-2.073170661926269,11.219512939453123,0.4346953637660485,0.2812265905848787,4.383754579172611
1727362498.759206,522.0,497.0,567.0,491.0,669.0,468.0,730.0,689.0,643.0,580.0,591.0,513.0,0.0810546875,-0.00634765625,1.048828125,-1.2195122241973877,9.329268455505373,0.4450681027104137,0.2766367760342368,4.388245592011413
1727362498.7611966,522.0,497.0,567.0,491.0,669.0,468.0,730.0,689.0,643.0,580.0,591.0,513.0,0.0810546875,-0.00244140625,1.005859375,-0.2439024448394775,6.7682929039001465,0.4577393865905849,0.2823849500713267,4.417609857346648
1727362498.7651827,522.0,497.0,567.0,491.0,669.0,468.0,730.0,689.0,643.0,580.0,591.0,513.0,0.0927734375,0.017578125,0.986328125,1.3414634466171265,6.158536911010742,0.4727311982881598,0.2800961055634808,4.422194094151213
1727362498.7681725,522.0,497.0,567.0,491.0,669.0,467.0,726.0,686.0,646.0,579.0,590.0,511.0,0.0927734375,0.017578125,0.986328125,1.3414634466171265,6.158536911010742,0.4727311982881598,0.2800961055634808,4.422194094151213
1727362498.7720878,522.0,497.0,567.0,491.0,669.0,467.0,726.0,686.0,646.0,579.0,590.0,511.0,0.05810546875,0.01806640625,1.04150390625,3.04878044128418,6.341463565826416,0.4750297289586306,0.2777939229671897,4.424438601997148
1727362498.774576,522.0,497.0,567.0,491.0,669.0,467.0,726.0,686.0,646.0,579.0,590.0,511.0,0.095703125,0.0302734375,0.9638671875,3.170731782913208,2.865853786468506,0.4750297289586306,0.2777939229671897,4.424438601997148
1727362498.8323114,522.0,497.0,567.0,490.0,669.0,468.0,726.0,687.0,641.0,578.0,590.0,508.0,0.09423828125,0.0390625,0.95263671875,2.4390244483947754,4.817073345184326,0.5175966904422253,0.260580970042796,4.604941141226819
1727362498.875353,522.0,497.0,567.0,490.0,669.0,468.0,726.0,687.0,641.0,578.0,590.0,508.0,0.09814453125,0.04541015625,0.935546875,0.4878048896789551,8.841464042663574,0.5245216262482169,0.2939213409415121,4.632167631954351
1727362498.9525394,522.0,497.0,567.0,490.0,669.0,468.0,726.0,687.0,641.0,578.0,590.0,508.0,0.08349609375,0.0263671875,0.94775390625,0.0,10.97560977935791,0.5245729243937233,0.3697792439372325,4.614401041369472
1727362498.95953,522.0,497.0,567.0,490.0,669.0,468.0,726.0,687.0,641.0,578.0,590.0,508.0,0.0712890625,0.0048828125,0.9833984375,0.7317073345184326,11.890244483947754,0.5199392011412268,0.3548369044222539,4.6052821540656215
1727362498.9625175,522.0,497.0,567.0,490.0,669.0,468.0,726.0,687.0,641.0,578.0,590.0,508.0,0.05029296875,0.00634765625,1.017578125,2.682926893234253,10.42682933807373,0.5222304136947218,0.3433442082738944,4.632332139800285
1727362498.966526,522.0,497.0,567.0,490.0,669.0,468.0,726.0,687.0,641.0,578.0,590.0,508.0,0.0615234375,0.001953125,1.01416015625,3.2317073345184326,9.634146690368652,0.5164694008559201,0.3399067189728958,4.679638516405136
1727362498.9694965,522.0,499.0,567.0,493.0,669.0,469.0,720.0,685.0,642.0,577.0,589.0,506.0,0.06884765625,0.052734375,0.97119140625,5.670732021331787,10.487805366516112,0.5164694008559201,0.3399067189728958,4.679638516405136
1727362498.9694965,522.0,499.0,567.0,493.0,669.0,469.0,720.0,685.0,642.0,577.0,589.0,506.0,0.0712890625,0.03173828125,0.94091796875,0.6097561120986938,23.59756088256836,0.5164694008559201,0.3399067189728958,4.679638516405136
1727362499.034024,521.0,499.0,567.0,491.0,669.0,469.0,721.0,681.0,638.0,577.0,591.0,509.0,0.064453125,0.02099609375,0.9013671875,0.0609756112098693,21.34146308898925,0.5292286305278175,0.4812675891583452,4.526852011412269
1727362499.1337645,521.0,499.0,567.0,491.0,669.0,469.0,721.0,681.0,638.0,577.0,591.0,509.0,0.07861328125,0.05078125,0.88330078125,-1.7682926654815674,30.975610733032227,0.3154717403708987,0.6269779457917262,2.9330129957204
1727362499.140741,521.0,499.0,567.0,492.0,669.0,470.0,723.0,681.0,643.0,587.0,599.0,531.0,0.06689453125,0.04638671875,0.88818359375,-3.170731782913208,35.30487823486328,0.2879405563480742,0.6407267189728959,2.601857146932953
1727362499.142733,521.0,499.0,567.0,492.0,669.0,470.0,723.0,681.0,643.0,587.0,599.0,531.0,0.0537109375,0.08349609375,0.884765625,-7.560976028442383,44.69512176513672,0.2879405563480742,0.6407267189728959,2.601857146932953
1727362499.14672,521.0,499.0,567.0,492.0,669.0,470.0,723.0,681.0,643.0,587.0,599.0,531.0,0.029296875,0.099609375,0.86083984375,-13.292683601379396,54.69512176513672,0.2799323109843081,0.6280562339514979,2.46697269614836
1727362499.149986,521.0,499.0,567.0,492.0,669.0,470.0,723.0,681.0,643.0,587.0,599.0,531.0,0.04150390625,0.08837890625,0.857421875,-19.39024353027344,65.60975646972656,0.2707381455064194,0.6142382881597718,2.2889905848787446
1727362499.1509829,522.0,499.0,567.0,492.0,669.0,471.0,723.0,683.0,656.0,601.0,616.0,578.0,-0.06689453125,-0.01220703125,0.97216796875,-8.414634704589844,35.79268264770508,0.2707381455064194,0.6142382881597718,2.2889905848787446
1727362499.1539736,515.0,479.0,560.0,475.0,658.0,445.0,713.0,681.0,654.0,601.0,617.0,599.0,-0.10595703125,-0.009765625,1.03369140625,-5.792683124542236,-0.2439024448394775,0.2707381455064194,0.6142382881597718,2.2889905848787446
1727362499.1565006,515.0,479.0,560.0,475.0,658.0,445.0,713.0,681.0,654.0,601.0,617.0,599.0,-0.09326171875,-0.0048828125,1.05078125,-3.1097562313079834,2.4390244483947754,0.2581181597717547,0.5785787446504993,2.1088908844507848
1727362499.233631,515.0,479.0,560.0,475.0,658.0,445.0,713.0,681.0,654.0,601.0,617.0,599.0,-0.0673828125,0.0048828125,1.08544921875,1.585365891456604,7.682927131652832,0.3262255349500713,0.2956956062767475,1.6573122681883026
1727362499.2406042,515.0,479.0,560.0,475.0,658.0,445.0,713.0,681.0,654.0,601.0,617.0,599.0,-0.0419921875,0.033203125,1.115234375,6.158536911010742,16.280488967895508,0.4389639087018545,0.2831209985734665,2.300740713266762
1727362499.242599,515.0,479.0,560.0,475.0,658.0,445.0,713.0,681.0,654.0,601.0,617.0,599.0,-0.09130859375,0.0166015625,1.130859375,10.365854263305664,26.463415145874023,0.4389639087018545,0.2831209985734665,2.300740713266762
1727362499.2455878,497.0,451.0,533.0,446.0,635.0,361.0,709.0,672.0,642.0,583.0,607.0,591.0,-0.0390625,0.08544921875,1.26220703125,12.07317066192627,40.42683029174805,0.5275676176890157,0.3211009129814551,2.695611883024251
1727362499.2485793,497.0,451.0,533.0,446.0,635.0,361.0,709.0,672.0,642.0,583.0,607.0,591.0,-0.0390625,0.08544921875,1.26220703125,12.07317066192627,40.42683029174805,0.5275676176890157,0.3211009129814551,2.695611883024251
1727362499.2505715,497.0,451.0,533.0,446.0,635.0,361.0,709.0,672.0,642.0,583.0,607.0,591.0,-0.06103515625,0.1572265625,1.49267578125,19.45121955871582,62.07317352294922,0.6045980313837376,0.3832185592011412,3.1967217118402287
1727362499.2545846,497.0,451.0,533.0,446.0,635.0,361.0,709.0,672.0,642.0,583.0,607.0,591.0,0.30078125,0.5390625,3.05322265625,1.158536672592163,413.7195129394531,0.6045980313837376,0.3832185592011412,3.1967217118402287
1727362499.2563682,522.0,472.0,549.0,460.0,665.0,426.0,750.0,708.0,674.0,644.0,642.0,621.0,0.30078125,0.5390625,3.05322265625,1.158536672592163,413.7195129394531,0.6908812268188302,0.459133509272468,3.75204122681883
1727362499.353755,522.0,472.0,549.0,460.0,665.0,426.0,750.0,708.0,674.0,644.0,642.0,621.0,-0.013671875,-0.00537109375,2.46435546875,-10.30487823486328,474.3292846679688,2.362359543509273,1.5702618972895863,14.312536690442226
1727362499.3606348,522.0,472.0,549.0,460.0,665.0,426.0,750.0,708.0,674.0,644.0,642.0,621.0,0.236328125,0.64501953125,3.06201171875,-22.7439022064209,493.1097717285156,2.275995634807418,1.5321873181169758,13.753149429386593
1727362499.362601,522.0,472.0,549.0,460.0,665.0,426.0,750.0,708.0,674.0,644.0,642.0,621.0,-0.1328125,0.5830078125,2.86181640625,-16.036584854125977,503.6585388183594,2.275995634807418,1.5321873181169758,13.753149429386593
1727362499.3665874,522.0,472.0,549.0,460.0,665.0,426.0,750.0,708.0,674.0,644.0,642.0,621.0,-0.70556640625,0.5634765625,2.99462890625,-18.84146308898925,482.56097412109375,2.239292282453638,1.5781059486447933,13.408886348074182
1727362499.3695776,522.0,472.0,549.0,460.0,665.0,426.0,750.0,708.0,674.0,644.0,642.0,621.0,-0.8330078125,0.23779296875,2.0498046875,-24.878049850463867,469.8170776367188,2.239292282453638,1.5781059486447933,13.408886348074182
1727362499.370572,522.0,472.0,549.0,460.0,665.0,426.0,750.0,708.0,674.0,644.0,642.0,621.0,-0.1650390625,0.626953125,1.11767578125,-74.26829528808594,365.5487976074219,2.143792952924394,1.6814929386590585,13.120602781740372
1727362499.3738737,526.0,496.0,557.0,494.0,670.0,471.0,748.0,709.0,672.0,635.0,637.0,620.0,2.21337890625,1.0185546875,0.71630859375,23.170732498168945,-280.0,2.143792952924394,1.6814929386590585,13.120602781740372
1727362499.453629,526.0,496.0,557.0,494.0,670.0,471.0,748.0,709.0,672.0,635.0,637.0,620.0,1.81689453125,0.99951171875,0.79150390625,50.0,-286.768310546875,0.2981960342368046,0.3552938231098431,1.832644365192582
1727362499.460604,526.0,496.0,557.0,494.0,670.0,471.0,748.0,709.0,672.0,635.0,637.0,620.0,1.42626953125,0.96728515625,0.931640625,80.48780822753906,-309.20733642578125,0.2154119543509272,0.0541097717546362,1.0011409272467904
1727362499.462597,526.0,501.0,560.0,496.0,672.0,471.0,754.0,720.0,676.0,645.0,643.0,628.0,0.5546875,0.74462890625,1.1982421875,108.4756088256836,-348.5975646972656,0.2154119543509272,0.0541097717546362,1.0011409272467904
1727362499.4655871,526.0,501.0,560.0,496.0,672.0,471.0,754.0,720.0,676.0,645.0,643.0,628.0,0.17529296875,0.57763671875,1.19091796875,112.74390411376952,-356.768310546875,0.1958450499286733,-0.068878544935806,0.8158230099857348
1727362499.468577,526.0,501.0,560.0,496.0,672.0,471.0,754.0,720.0,676.0,645.0,643.0,628.0,-0.154296875,0.4658203125,1.181640625,114.45122528076172,-359.51220703125,0.1958450499286733,-0.068878544935806,0.8158230099857348
1727362499.4705706,526.0,501.0,560.0,496.0,672.0,471.0,754.0,720.0,676.0,645.0,643.0,628.0,-0.927734375,0.14111328125,0.80615234375,103.29268646240234,-265.0609741210937,0.1773688017118402,-0.2171604992867332,0.6193831954350928
1727362499.4732263,527.0,502.0,562.0,497.0,673.0,472.0,760.0,723.0,680.0,651.0,645.0,640.0,-1.1669921875,-0.25927734375,0.67138671875,103.41463470458984,-207.8658599853516,0.1773688017118402,-0.2171604992867332,0.6193831954350928
1727362499.559138,527.0,502.0,562.0,497.0,673.0,472.0,760.0,723.0,680.0,651.0,645.0,640.0,-1.6005859375,-0.53515625,0.4501953125,63.963417053222656,-160.85366821289062,0.0013912553495007,0.0023919971469329,0.0010988017118402
1727362499.574074,527.0,502.0,562.0,497.0,673.0,472.0,760.0,723.0,680.0,651.0,645.0,640.0,-1.76220703125,-0.55615234375,0.32861328125,56.463417053222656,-153.41464233398438,0.0048463908701854,0.0058355634807417,0.0056593009985734
1727362499.632445,527.0,502.0,562.0,497.0,673.0,472.0,760.0,723.0,680.0,651.0,645.0,640.0,-2.02880859375,-0.57861328125,0.126953125,41.219512939453125,-130.18292236328125,0.001354607703281,0.0046929671897289,-0.0033402710413694
1727362499.6384175,528.0,501.0,563.0,496.0,673.0,473.0,753.0,720.0,682.0,652.0,647.0,641.0,-11.201171875,-7.86181640625,4.81396484375,-380.6097717285156,264.32928466796875,0.0071449358059914,-0.0033476890156918,-0.0079948359486447
1727362499.640411,528.0,501.0,563.0,496.0,673.0,473.0,753.0,720.0,682.0,652.0,647.0,641.0,0.6806640625,-0.29345703125,0.759765625,-24.20731735229492,46.89024353027344,0.003660485021398,-0.0044987731811697,-0.0034459914407988
1727362499.6443973,528.0,501.0,563.0,496.0,673.0,473.0,753.0,720.0,682.0,652.0,647.0,641.0,0.224609375,0.16259765625,0.95654296875,15.243903160095217,80.60975646972656,0.003660485021398,-0.0044987731811697,-0.0034459914407988
1727362499.647387,528.0,501.0,563.0,496.0,673.0,473.0,753.0,720.0,682.0,652.0,647.0,641.0,-0.35693359375,-0.04736328125,0.8291015625,-10.182927131652832,90.5487823486328,0.00480242510699,0.0058440513552068,0.0169537517831669
1727362499.6496878,528.0,501.0,563.0,496.0,673.0,473.0,753.0,720.0,682.0,652.0,647.0,641.0,-0.677734375,0.0283203125,0.31787109375,3.04878044128418,39.14634323120117,0.00480242510699,0.0058440513552068,0.0169537517831669
1727362499.6526792,507.0,468.0,546.0,466.0,647.0,439.0,716.0,673.0,652.0,586.0,608.0,570.0,-0.15087890625,0.10107421875,0.8271484375,3.719512224197388,28.90243911743164,0.0059736804564907,0.0046929671897289,-0.0125015406562054
1727362499.754551,507.0,468.0,546.0,466.0,647.0,439.0,716.0,673.0,652.0,586.0,608.0,570.0,-0.10693359375,0.01416015625,0.94921875,-11.341464042663574,20.670732498168945,-0.0240832097004279,0.0150357917261055,-0.0146625249643366
1727362499.7615397,499.0,444.0,538.0,445.0,639.0,396.0,717.0,669.0,658.0,590.0,617.0,592.0,-0.10693359375,0.01416015625,0.94921875,-11.341464042663574,20.670732498168945,0.0140405563480741,-0.0113895435092724,-0.0191451783166904
1727362499.7635329,499.0,444.0,538.0,445.0,639.0,396.0,717.0,669.0,658.0,590.0,617.0,592.0,-0.1357421875,-0.01611328125,0.98583984375,-8.292682647705078,21.158536911010746,0.0140405563480741,-0.0113895435092724,-0.0191451783166904
1727362499.766518,499.0,444.0,538.0,445.0,639.0,396.0,717.0,669.0,658.0,590.0,617.0,592.0,-0.1357421875,-0.01611328125,0.98583984375,-8.292682647705078,21.158536911010746,-0.013688487874465,-0.0067924536376604,-0.0169996005706134
1727362499.8336496,499.0,444.0,538.0,445.0,639.0,396.0,717.0,669.0,658.0,590.0,617.0,592.0,-0.16796875,-0.0556640625,0.9306640625,-6.646341800689697,18.170732498168945,-0.011389942938659,-0.0021881027104136,-0.0169617118402282
1727362499.840626,499.0,444.0,538.0,445.0,639.0,396.0,717.0,669.0,658.0,590.0,617.0,592.0,-0.17529296875,-0.07373046875,0.93212890625,-3.658536672592163,13.780488014221191,0.0024599144079885,0.0024138373751783,-0.0124572039942938
1727362499.8513663,508.0,449.0,545.0,455.0,649.0,407.0,725.0,677.0,663.0,604.0,624.0,610.0,-0.18017578125,-0.048828125,0.98291015625,4.02439022064209,21.70731735229492,0.0024452639087018,0.0001128673323823,-0.0192031669044222
1727362499.8553212,508.0,449.0,545.0,455.0,649.0,407.0,725.0,677.0,663.0,604.0,624.0,610.0,-0.17626953125,-0.03466796875,0.99169921875,6.280488014221191,20.365854263305664,-0.0021444935805991,-0.0033379743223965,0.0079614407988587
1727362499.8577492,508.0,449.0,545.0,455.0,649.0,407.0,725.0,677.0,663.0,604.0,624.0,610.0,-0.18115234375,-0.01513671875,0.96923828125,6.890244007110596,18.719512939453125,-0.0021444935805991,-0.0033379743223965,0.0079614407988587
1727362499.861003,508.0,449.0,545.0,455.0,649.0,407.0,725.0,677.0,663.0,604.0,624.0,610.0,-0.19287109375,-0.0068359375,0.91845703125,5.731707572937012,15.487805366516112,0.0001467189728958,0.004705092724679,0.0101584022824536
1727362499.8641486,511.0,462.0,550.0,464.0,656.0,427.0,736.0,685.0,668.0,615.0,630.0,621.0,-0.185546875,-0.01416015625,0.8955078125,5.9146342277526855,-18.414634704589844,0.0001467189728958,0.004705092724679,0.0101584022824536
1727362499.8674152,511.0,462.0,550.0,464.0,656.0,427.0,736.0,685.0,668.0,615.0,630.0,621.0,-0.1943359375,-0.03076171875,0.86376953125,6.402439117431641,-23.231708526611328,-0.0067635520684736,0.0035600713266761,0.0056217118402282
1727362499.8721006,511.0,462.0,550.0,464.0,656.0,427.0,736.0,685.0,668.0,615.0,630.0,621.0,-0.1884765625,-0.0263671875,0.86279296875,7.134146690368652,-29.024391174316406,0.0070643223965763,0.0012591012838801,-0.0101027817403709
1727362499.9537227,514.0,469.0,552.0,469.0,660.0,437.0,739.0,690.0,667.0,623.0,633.0,631.0,-0.1884765625,-0.0263671875,0.86279296875,7.134146690368652,-29.024391174316406,0.0047657774607703,-0.0044878459343794,-0.0079337945791726
1727362499.9611278,514.0,469.0,552.0,469.0,660.0,437.0,739.0,690.0,667.0,623.0,633.0,631.0,-0.1767578125,-0.033203125,0.9150390625,8.658536911010742,-35.914634704589844,0.0012959914407988,-0.0010394293865905,-0.0124615977175463
1727362499.9631207,514.0,469.0,552.0,469.0,660.0,437.0,739.0,690.0,667.0,623.0,633.0,631.0,-0.1591796875,0.013671875,0.94873046875,7.743902683258057,-39.08536529541016,0.0012959914407988,-0.0010394293865905,-0.0124615977175463
1727362499.9661102,514.0,469.0,552.0,469.0,660.0,437.0,739.0,690.0,667.0,623.0,633.0,631.0,-0.1552734375,0.00390625,0.9638671875,6.219512462615967,-40.42683029174805,0.0024379315263908,0.0035600713266761,0.0215214835948644
1727362499.9691026,514.0,469.0,552.0,469.0,660.0,437.0,739.0,690.0,667.0,623.0,633.0,631.0,-0.1396484375,0.00439453125,1.0009765625,6.158536911010742,-40.9756088256836,0.0024379315263908,0.0035600713266761,0.0215214835948644
1727362499.970097,511.0,463.0,551.0,462.0,656.0,429.0,730.0,687.0,661.0,617.0,628.0,630.0,-0.09619140625,0.0634765625,1.12255859375,1.0365853309631348,-27.62195205688477,0.007093637660485,0.004707517831669,-0.0078401283880171
1727362499.9737945,511.0,463.0,551.0,462.0,656.0,429.0,730.0,687.0,661.0,617.0,628.0,630.0,-0.11572265625,-0.0302734375,1.03955078125,3.1097562313079834,-9.085366249084473,0.007093637660485,0.004707517831669,-0.0078401283880171
1727362500.031628,511.0,463.0,551.0,462.0,656.0,429.0,730.0,687.0,661.0,617.0,628.0,630.0,-0.111328125,-0.021484375,1.0341796875,7.012195110321045,-5.54878044128418,-0.0009805706134094,-0.0044890584878744,-0.0033167189728958
1727362500.1337223,511.0,463.0,551.0,462.0,656.0,429.0,730.0,687.0,661.0,617.0,628.0,630.0,-0.11572265625,-0.00048828125,1.0126953125,9.57317066192627,-2.987804889678955,0.0047584593437945,0.0012615406562054,0.0147335378031383
1727362500.1406972,511.0,463.0,551.0,462.0,656.0,429.0,730.0,687.0,661.0,617.0,628.0,630.0,-0.10791015625,0.00830078125,1.00146484375,10.0,-1.097561001777649,0.0024525820256776,0.0001128673323823,-0.0080042796005706
1727362500.142691,511.0,463.0,551.0,462.0,656.0,429.0,730.0,687.0,661.0,617.0,628.0,630.0,-0.10009765625,0.0166015625,0.998046875,9.329268455505373,0.2439024448394775,0.0024525820256776,0.0001128673323823,-0.0080042796005706
1727362500.1456804,511.0,463.0,551.0,462.0,656.0,429.0,730.0,687.0,661.0,617.0,628.0,630.0,-0.11083984375,0.0234375,0.9912109375,7.804878234863281,1.585365891456604,0.0047291440798858,0.0081583737517831,-0.0011383024251069
1727362500.148922,508.0,457.0,547.0,453.0,651.0,423.0,717.0,675.0,647.0,600.0,620.0,620.0,-0.1240234375,0.01708984375,0.98681640625,5.54878044128418,2.073170661926269,0.0047291440798858,0.0081583737517831,-0.0011383024251069
1727362500.1509156,508.0,453.0,545.0,451.0,650.0,419.0,712.0,671.0,644.0,598.0,618.0,618.0,-0.119140625,0.013671875,0.98828125,4.02439022064209,-0.9146341681480408,0.0059223823109843,0.0012663908701854,-0.005685092724679
1727362500.1549895,507.0,455.0,546.0,452.0,650.0,421.0,708.0,670.0,640.0,600.0,619.0,619.0,-0.12451171875,0.015625,0.9921875,2.378048896789551,1.829268336296081,-0.0021591440798858,-0.0021868901569186,-0.0055844793152639
1727362500.1699982,507.0,455.0,546.0,452.0,650.0,421.0,708.0,670.0,640.0,600.0,619.0,619.0,-0.12744140625,0.02294921875,0.9912109375,1.158536672592163,1.7682926654815674,0.0001393865905848,-0.0010345791726105,0.0101238659058487
1727362500.2550354,507.0,455.0,546.0,452.0,650.0,421.0,708.0,670.0,640.0,600.0,619.0,619.0,-0.1220703125,0.02490234375,0.99560546875,0.3048780560493469,2.865853786468506,-0.0010025534950071,0.0001165049928673,0.0010817546362339
1727362500.26201,507.0,455.0,546.0,452.0,650.0,421.0,708.0,670.0,640.0,600.0,619.0,619.0,-0.12255859375,0.02294921875,1.00048828125,0.2439024448394775,3.04878044128418,0.0024379315263908,-0.0021881027104136,-0.0124288587731811
1727362500.271408,507.0,455.0,546.0,452.0,650.0,421.0,708.0,670.0,640.0,600.0,619.0,619.0,-0.12255859375,0.0009765625,1.0322265625,2.5609755516052246,5.243902683258057,0.0059003994293865,0.0024138373751783,-0.0055844793152639
1727362500.2744482,508.0,463.0,548.0,456.0,653.0,428.0,716.0,676.0,658.0,616.0,626.0,632.0,-0.1064453125,-0.0087890625,1.26025390625,22.80487823486328,76.46341705322266,0.0059003994293865,0.0024138373751783,-0.0055844793152639
1727362500.3323717,508.0,463.0,548.0,456.0,653.0,428.0,716.0,676.0,658.0,616.0,626.0,632.0,-0.11279296875,0.078125,0.77001953125,18.658536911010746,91.15853881835938,-0.0021664764621968,-0.0056304422253922,-0.0214962054208273
1727362500.3393462,508.0,463.0,548.0,456.0,653.0,428.0,716.0,676.0,658.0,616.0,626.0,632.0,-0.2802734375,0.09619140625,0.19384765625,7.378048896789551,59.8780517578125,0.0070423395149786,0.0012639657631954,-0.0192542510699001
1727362500.342461,511.0,473.0,552.0,470.0,659.0,443.0,733.0,687.0,669.0,633.0,632.0,641.0,-0.4287109375,0.19140625,0.08642578125,-12.92682933807373,21.95121955871582,0.0024305991440798,0.0001140798858773,-0.0236159914407988
1727362500.3454545,511.0,473.0,552.0,470.0,659.0,443.0,733.0,687.0,669.0,633.0,632.0,641.0,-0.35888671875,0.2509765625,0.14013671875,-25.060976028442383,2.865853786468506,0.0013033238231098,0.0012639657631954,-0.0078820684736091
1727362500.348443,511.0,473.0,552.0,470.0,659.0,443.0,733.0,687.0,669.0,633.0,632.0,641.0,-0.2392578125,0.0234375,0.34716796875,-36.95122146606445,-30.426830291748047,0.0013033238231098,0.0012639657631954,-0.0078820684736091
1727362500.349441,511.0,473.0,552.0,470.0,659.0,443.0,733.0,687.0,669.0,633.0,632.0,641.0,-0.2685546875,0.056640625,0.32666015625,-45.853660583496094,-62.43902587890625,0.0013033238231098,0.0012639657631954,-0.0078820684736091
1727362500.3518436,511.0,473.0,552.0,470.0,659.0,443.0,733.0,687.0,669.0,633.0,632.0,641.0,0.00732421875,-0.0791015625,1.50048828125,-21.09756088256836,-19.63414764404297,0.010519457917261,0.0012651783166904,0.0101868901569186
1727362500.3552103,511.0,473.0,552.0,470.0,659.0,443.0,733.0,687.0,669.0,633.0,632.0,641.0,-0.05810546875,-0.013671875,1.2626953125,-10.487805366516112,19.7560977935791,0.0047584593437945,0.011605577746077,0.0010698145506419
1727362500.4337025,504.0,443.0,545.0,450.0,647.0,417.0,720.0,675.0,661.0,614.0,628.0,634.0,-0.072265625,0.029296875,1.20654296875,-10.060976028442385,30.18292808532715,0.0047364764621968,0.0012627532097004,-0.0282000713266761
1727362500.4406772,504.0,443.0,545.0,450.0,647.0,417.0,720.0,675.0,661.0,614.0,628.0,634.0,-0.0810546875,0.12646484375,1.0546875,-18.84146308898925,45.4878044128418,0.0070496718972895,0.0024126248216833,-0.0057132382310984
1727362500.4436667,504.0,443.0,545.0,450.0,647.0,417.0,720.0,675.0,661.0,614.0,628.0,634.0,-0.10693359375,0.162109375,0.93017578125,-31.58536720275879,46.95122146606445,0.0070496718972895,0.0024126248216833,-0.0057132382310984
1727362500.4466584,504.0,443.0,545.0,450.0,647.0,417.0,720.0,675.0,661.0,614.0,628.0,634.0,-0.228515625,-0.03125,0.7568359375,-33.29268264770508,36.219512939453125,0.0036091868758915,0.0001152924393723,-0.0349976176890157
1727362500.4486506,504.0,443.0,545.0,450.0,647.0,417.0,720.0,675.0,661.0,614.0,628.0,634.0,-0.271484375,-0.16796875,0.669921875,-11.036585807800291,5.6097564697265625,0.0036091868758915,0.0001152924393723,-0.0349976176890157
1727362500.4506445,504.0,443.0,545.0,450.0,647.0,417.0,720.0,675.0,661.0,614.0,628.0,634.0,-0.28369140625,-0.26171875,0.892578125,8.170731544494629,-13.90243911743164,0.0036165192582025,0.0024138373751783,-0.0169259629101283
1727362500.4536588,499.0,430.0,539.0,441.0,643.0,405.0,715.0,676.0,655.0,603.0,624.0,626.0,-0.18603515625,-0.06005859375,1.1982421875,30.30487823486328,21.95121955871582,0.0036165192582025,0.0024138373751783,-0.0169259629101283
1727362500.4564376,499.0,430.0,539.0,441.0,643.0,405.0,715.0,676.0,655.0,603.0,624.0,626.0,-0.18603515625,-0.06005859375,1.1982421875,30.30487823486328,21.95121955871582,0.0047584593437945,-0.0010382168330955,-0.0123796148359486
1727362500.5329237,499.0,430.0,539.0,441.0,643.0,405.0,715.0,676.0,655.0,603.0,624.0,626.0,-0.1728515625,-0.10888671875,1.345703125,42.5,43.963417053222656,-0.0021884593437945,0.0047208701854493,0.0079100427960057
1727362500.537907,499.0,430.0,539.0,441.0,643.0,405.0,715.0,676.0,655.0,603.0,624.0,626.0,-0.205078125,-0.09912109375,1.37109375,60.91463470458984,62.43902587890625,0.0001100855920114,0.0035673609129814,-0.0101381597717546
1727362500.5408936,499.0,430.0,539.0,441.0,643.0,405.0,715.0,676.0,655.0,603.0,624.0,626.0,-0.1689453125,0.005859375,1.41357421875,75.91463470458984,82.31707763671875,-0.004516305278174,-0.0056219543509272,0.0033446647646219
1727362500.5448802,499.0,430.0,539.0,441.0,643.0,405.0,715.0,676.0,655.0,603.0,624.0,626.0,-0.1572265625,-0.09912109375,1.33349609375,81.03659057617188,95.67073059082033,0.0070350071326676,-0.0021759629101283,0.0102010413694721
1727362500.5458767,499.0,429.0,540.0,441.0,645.0,412.0,714.0,672.0,655.0,601.0,623.0,622.0,-0.17919921875,-0.03662109375,1.3271484375,92.19512176513672,108.65853881835938,0.0070350071326676,-0.0021759629101283,0.0102010413694721
1727362500.5504766,499.0,429.0,540.0,441.0,645.0,412.0,714.0,672.0,655.0,601.0,623.0,622.0,-0.24072265625,0.02001953125,1.36376953125,101.5243911743164,120.18292999267578,0.0035578887303851,-0.0010224393723252,-0.0237262196861626
1727362500.5532224,499.0,429.0,540.0,441.0,645.0,412.0,714.0,672.0,655.0,601.0,623.0,622.0,-0.59375,0.1416015625,3.0263671875,110.5487823486328,265.0609741210937,0.0035578887303851,-0.0010224393723252,-0.0237262196861626
1727362500.57087,499.0,429.0,540.0,441.0,645.0,412.0,714.0,672.0,655.0,601.0,623.0,622.0,-1.15478515625,-1.00439453125,3.05712890625,193.5975646972656,232.62196350097656,0.0001100855920114,-0.0021723252496433,0.0057293723252496
1727362500.6544712,510.0,466.0,551.0,464.0,658.0,439.0,727.0,683.0,667.0,623.0,627.0,637.0,-1.31787109375,0.12841796875,1.35791015625,263.3536682128906,58.59756088256836,0.0081549643366619,0.0024235520684736,-0.0010986590584878
1727362500.6604445,510.0,466.0,551.0,464.0,658.0,439.0,727.0,683.0,667.0,623.0,627.0,637.0,-4.59130859375,1.82080078125,0.02490234375,358.4146423339844,-83.04878234863281,0.0058857346647646,-0.0033246219686162,-0.0079924821683309
1727362500.6624362,510.0,466.0,551.0,464.0,658.0,439.0,727.0,683.0,667.0,623.0,627.0,637.0,-4.7666015625,-1.6669921875,0.80859375,172.56097412109375,-247.31707763671875,0.0058857346647646,-0.0033246219686162,-0.0079924821683309
1727362500.6654277,510.0,466.0,551.0,464.0,658.0,439.0,727.0,683.0,667.0,623.0,627.0,637.0,-4.7666015625,-1.6669921875,0.80859375,172.56097412109375,-247.31707763671875,0.0012373609129814,0.0035734236804564,-0.0079408987161198
1727362500.6684177,510.0,466.0,551.0,464.0,658.0,439.0,727.0,683.0,667.0,623.0,627.0,637.0,-3.7353515625,-0.75390625,-1.07421875,-74.57317352294922,-412.5,0.0012373609129814,0.0035734236804564,-0.0079408987161198
1727362500.67041,518.0,491.0,559.0,484.0,666.0,459.0,750.0,707.0,670.0,642.0,639.0,653.0,-3.15966796875,-0.2861328125,-0.3095703125,-142.6219482421875,40.30487823486328,-0.0033450641940085,-0.0056219543509272,-0.0034343509272467
1727362500.673185,518.0,491.0,559.0,484.0,666.0,459.0,750.0,707.0,670.0,642.0,639.0,653.0,-2.01171875,0.1689453125,0.54833984375,-170.0,196.0975646972656,-0.0033450641940085,-0.0056219543509272,-0.0034343509272467
1727362500.7309222,518.0,491.0,559.0,484.0,666.0,459.0,750.0,707.0,670.0,642.0,639.0,653.0,-1.61474609375,0.2353515625,0.8857421875,-180.79269409179688,242.0731811523437,0.0024452639087018,0.0047111697574893,0.0010983024251069
1727362500.7744353,518.0,491.0,559.0,484.0,666.0,459.0,750.0,707.0,670.0,642.0,639.0,653.0,-1.060546875,0.287109375,1.27001953125,-194.268295288086,255.0,0.0024305991440798,-0.0010345791726105,-0.0011244507845934
1727362500.8308864,518.0,491.0,559.0,484.0,666.0,459.0,750.0,707.0,670.0,642.0,639.0,653.0,-0.7568359375,0.29248046875,1.3857421875,-198.6585388183593,256.82928466796875,0.0024232810271041,0.0012627532097004,0.0011498858773181
1727362500.8386734,522.0,498.0,564.0,492.0,670.0,464.0,754.0,709.0,676.0,646.0,640.0,656.0,-0.50439453125,0.29296875,1.43798828125,-164.93902587890625,258.6585388183594,0.0059003994293865,-0.0010357917261055,-0.0056520542082738
1727362500.8416731,522.0,498.0,564.0,492.0,670.0,464.0,754.0,709.0,676.0,646.0,640.0,656.0,-0.2333984375,0.2490234375,1.4296875,-128.84146118164062,265.7317199707031,0.0059003994293865,0.0058634664764621,0.0056776462196861
1727362500.8446617,522.0,498.0,564.0,492.0,670.0,464.0,754.0,709.0,676.0,646.0,640.0,656.0,0.4111328125,0.2001953125,1.3671875,-105.24390411376952,291.82928466796875,0.0059003994293865,0.0058634664764621,0.0056776462196861
1727362500.846655,523.0,499.0,564.0,494.0,670.0,467.0,753.0,712.0,673.0,645.0,638.0,653.0,3.2109375,0.27197265625,0.873046875,-8.109756469726562,329.32928466796875,0.0035872039942938,-0.0021832382310984,-0.0056051640513552
1727362500.84765,523.0,499.0,564.0,494.0,670.0,467.0,753.0,712.0,673.0,645.0,638.0,653.0,2.28955078125,-0.34375,0.94921875,-68.59756469726562,26.280488967895508,0.0035872039942938,-0.0021832382310984,-0.0056051640513552
1727362500.8505778,524.0,495.0,565.0,491.0,670.0,465.0,755.0,718.0,677.0,648.0,640.0,656.0,1.298828125,0.8203125,0.328125,131.8292694091797,-467.6829528808594,0.0024305991440798,0.0001152924393723,-0.0124404992867332
1727362500.9337082,524.0,495.0,565.0,491.0,670.0,465.0,755.0,718.0,677.0,648.0,640.0,656.0,0.3515625,0.96875,6.39306640625,131.09756469726562,-640.5487670898438,-0.0010391868758915,-0.0090788587731811,-0.0011266476462196
1727362500.9396875,524.0,495.0,565.0,491.0,670.0,465.0,755.0,718.0,677.0,648.0,640.0,656.0,0.08642578125,-0.74951171875,3.0390625,139.69512939453125,-610.3048706054688,0.0070423395149786,-0.0010297289586305,-0.0055608273894436
1727362500.942677,524.0,495.0,565.0,491.0,670.0,465.0,755.0,718.0,677.0,648.0,640.0,656.0,0.47314453125,0.47705078125,3.3818359375,68.9024429321289,-580.48779296875,0.0047364764621968,0.0035649358059914,-0.0079434522111269
1727362500.945668,524.0,495.0,565.0,491.0,670.0,465.0,755.0,718.0,677.0,648.0,640.0,656.0,0.7236328125,0.61376953125,3.01904296875,70.0,-552.8658447265625,-0.0021884593437945,0.0012651783166904,-0.0078913124108416
1727362500.9486568,524.0,495.0,565.0,491.0,670.0,465.0,755.0,718.0,677.0,648.0,640.0,656.0,0.2607421875,0.400390625,2.001953125,11.707317352294922,-479.8780517578125,-0.0021884593437945,0.0012651783166904,-0.0078913124108416
1727362500.9506528,524.0,495.0,565.0,491.0,670.0,465.0,755.0,718.0,677.0,648.0,640.0,656.0,0.453125,0.0302734375,8.462890625,-28.780488967895508,-416.4634094238281,0.0001100855920114,-0.0021783880171184,-0.0169613552068473
1727362500.953178,505.0,456.0,550.0,444.0,648.0,392.0,746.0,704.0,675.0,655.0,643.0,662.0,-0.3642578125,0.09814453125,0.6708984375,-1.097561001777649,55.24390411376953,0.0001100855920114,-0.0021783880171184,-0.0169613552068473
1727362500.956313,505.0,456.0,550.0,444.0,648.0,392.0,746.0,704.0,675.0,655.0,643.0,662.0,-0.41943359375,-0.2431640625,0.35009765625,-6.890244007110596,14.634146690368652,0.0001320684736091,0.0070133523537803,-0.007900912981455
1727362501.0350366,505.0,456.0,550.0,444.0,648.0,392.0,746.0,704.0,675.0,655.0,643.0,662.0,-0.49365234375,-0.13720703125,0.64013671875,-8.231707572937012,-29.45121955871582,0.3278718687589158,1.7165566191155492,5.732970213980029
1727362501.043008,499.0,453.0,543.0,439.0,642.0,376.0,730.0,680.0,651.0,608.0,621.0,630.0,-0.0517578125,0.0400390625,1.1767578125,-2.134146451950073,-36.64634323120117,0.5027441226818831,1.6085470470756065,6.047370970042796
1727362501.0450015,499.0,453.0,543.0,439.0,642.0,376.0,730.0,680.0,651.0,608.0,621.0,630.0,0.0390625,0.03662109375,1.2177734375,-2.5609755516052246,-29.39024543762207,0.7893300285306705,1.4695174893009988,6.45659542082739
1727362501.05033,499.0,453.0,543.0,439.0,642.0,376.0,730.0,680.0,651.0,608.0,621.0,630.0,0.01953125,0.0185546875,1.14111328125,-4.329268455505371,-13.04878044128418,1.0298572182596293,1.475329985734665,7.048233395149786
1727362501.0533504,499.0,453.0,543.0,439.0,642.0,376.0,730.0,680.0,651.0,608.0,621.0,630.0,-0.1337890625,-0.0205078125,0.9609375,-3.963414669036865,-6.158536911010742,1.0298572182596293,1.475329985734665,7.048233395149786
1727362501.0565324,499.0,453.0,543.0,439.0,642.0,376.0,730.0,680.0,651.0,608.0,621.0,630.0,-0.1337890625,-0.0205078125,0.9609375,-3.963414669036865,-6.158536911010742,1.2183448216833097,1.6720305706134095,8.496491084165479
1727362501.059718,501.0,458.0,546.0,449.0,643.0,405.0,715.0,676.0,642.0,583.0,607.0,572.0,-0.07861328125,-0.02294921875,1.005859375,6.707317352294922,3.2317073345184326,1.2183448216833097,1.6720305706134095,8.496491084165479
1727362501.062842,501.0,458.0,546.0,449.0,643.0,405.0,715.0,676.0,642.0,583.0,607.0,572.0,-0.09716796875,-0.021484375,0.99365234375,8.841464042663574,4.5731706619262695,1.2283365049928674,2.534337689015692,10.594889928673323
1727362501.1338494,501.0,458.0,546.0,449.0,643.0,405.0,715.0,676.0,642.0,583.0,607.0,572.0,-0.10400390625,-0.0107421875,0.98974609375,10.365854263305664,3.9024391174316406,1.453476176890157,0.3100451069900143,9.901652952924394
1727362501.138833,501.0,458.0,546.0,449.0,643.0,405.0,715.0,676.0,642.0,583.0,607.0,572.0,-0.10400390625,-0.0107421875,0.98974609375,10.365854263305664,3.9024391174316406,1.3960859486447932,0.7285117974322397,10.246933823109844
1727362501.232718,501.0,458.0,546.0,449.0,643.0,405.0,715.0,676.0,642.0,583.0,607.0,572.0,-0.10205078125,-0.00048828125,0.9873046875,9.085366249084473,2.987804889678955,0.7893373609129816,0.6949347788873039,6.151950827389444
1727362501.240691,501.0,458.0,546.0,449.0,643.0,405.0,715.0,676.0,642.0,583.0,607.0,572.0,-0.09228515625,-0.0078125,0.99072265625,8.780488014221191,2.195122003555298,0.7502841940085592,0.6592582453637661,5.699003395149786
1727362501.2426844,501.0,458.0,546.0,449.0,643.0,405.0,715.0,676.0,642.0,583.0,607.0,572.0,-0.09765625,-0.0078125,0.978515625,7.743902683258057,1.4634146690368652,0.7502841940085592,0.6592582453637661,5.699003395149786
1727362501.2486649,507.0,468.0,552.0,461.0,652.0,424.0,712.0,677.0,641.0,591.0,606.0,584.0,-0.10791015625,-0.00439453125,1.0048828125,3.2926831245422363,-11.40243911743164,0.7169480313837376,0.6477400570613411,5.437420456490728
1727362501.27132,519.0,491.0,561.0,483.0,665.0,455.0,728.0,691.0,649.0,601.0,607.0,577.0,-0.01123046875,-0.02783203125,0.974609375,6.219512462615967,-31.158536911010746,0.5594613980028531,0.5947765335235379,4.345555691868759
1727362501.3737018,519.0,491.0,561.0,483.0,665.0,455.0,728.0,691.0,649.0,601.0,607.0,577.0,-0.0126953125,0.0283203125,0.95361328125,9.634146690368652,-26.158536911010746,0.2158223395149786,0.6739967047075607,2.336730342368046
1727362501.4309945,519.0,491.0,561.0,483.0,665.0,455.0,728.0,691.0,649.0,601.0,607.0,577.0,-0.0205078125,0.09619140625,0.89990234375,9.085366249084473,-20.54878044128418,0.3080350784593438,0.5728948930099858,2.464749871611983
1727362501.4369714,519.0,491.0,561.0,483.0,665.0,455.0,728.0,691.0,649.0,601.0,607.0,577.0,-0.01611328125,0.12060546875,0.8857421875,4.878048896789551,-13.414634704589844,0.303430670470756,0.5499106990014266,2.500911726105564
1727362501.4399614,519.0,491.0,561.0,483.0,665.0,455.0,728.0,691.0,649.0,601.0,607.0,577.0,-0.03076171875,0.12890625,0.8916015625,-1.4024391174316406,-7.0731706619262695,0.3022887303851641,0.5372681169757489,2.512122111269615
1727362501.4430864,519.0,491.0,561.0,483.0,665.0,455.0,728.0,691.0,649.0,601.0,607.0,577.0,0.01806640625,0.02880859375,0.90478515625,-5.9146342277526855,-2.012195110321045,0.3022887303851641,0.5372681169757489,2.512122111269615
1727362501.4470732,520.0,492.0,561.0,486.0,666.0,460.0,718.0,686.0,642.0,600.0,604.0,566.0,-0.05322265625,0.02880859375,1.06298828125,3.47560977935791,-9.268293380737305,0.2930652496433666,0.5200296718972895,2.5527127960057063
1727362501.4480698,520.0,493.0,561.0,488.0,667.0,461.0,719.0,692.0,643.0,596.0,599.0,556.0,0.02001953125,-0.07421875,0.97021484375,-4.0853657722473145,-10.365854263305664,0.2930652496433666,0.5200296718972895,2.5527127960057063
1727362501.4716115,520.0,493.0,561.0,488.0,667.0,461.0,719.0,692.0,643.0,596.0,599.0,556.0,0.0419921875,-0.03173828125,0.95068359375,16.219512939453125,-28.475610733032227,0.2388297289586305,0.4706395577746077,2.8588674179743228
1727362501.5526996,521.0,494.0,562.0,489.0,667.0,463.0,716.0,689.0,645.0,590.0,597.0,538.0,0.05615234375,-0.00634765625,0.91064453125,16.829269409179688,-26.34146499633789,0.2904442796005706,0.3454206704707561,3.4172584878744656
1727362501.558683,521.0,494.0,562.0,489.0,667.0,463.0,716.0,689.0,645.0,590.0,597.0,538.0,0.0537109375,0.04052734375,0.87890625,16.829269409179688,-20.731708526611328,0.3088472610556348,0.3465790442225392,3.548040356633381
1727362501.571989,521.0,494.0,562.0,489.0,667.0,463.0,716.0,689.0,645.0,590.0,597.0,538.0,0.046875,0.05908203125,0.8974609375,14.085366249084473,-13.963415145874023,0.3249077318116976,0.3834005991440799,3.822542068473609
1727362501.6309996,521.0,494.0,562.0,489.0,667.0,463.0,716.0,689.0,645.0,590.0,597.0,538.0,0.046875,0.05908203125,0.8974609375,14.085366249084473,-13.963415145874023,0.5114192154065621,0.5214283309557776,4.419229087018545
1727362501.6369786,521.0,494.0,562.0,489.0,667.0,463.0,716.0,689.0,645.0,590.0,597.0,538.0,0.03515625,0.01806640625,0.96826171875,10.792683601379396,-8.780488014221191,0.5252031241084165,0.512246305278174,4.559104536376605
1727362501.6389718,521.0,496.0,563.0,490.0,667.0,465.0,710.0,685.0,642.0,587.0,594.0,526.0,0.033203125,0.06201171875,0.94287109375,7.865853786468506,3.780488014221192,0.5252031241084165,0.512246305278174,4.559104536376605
1727362501.6429586,521.0,496.0,563.0,490.0,667.0,465.0,710.0,685.0,642.0,587.0,594.0,526.0,0.01416015625,0.06103515625,0.96240234375,1.2804877758026123,10.487805366516112,0.5413002425106991,0.5157080741797433,4.628759928673324
1727362501.6461744,521.0,496.0,563.0,490.0,667.0,465.0,710.0,685.0,642.0,587.0,594.0,526.0,-0.0390625,0.02880859375,0.99267578125,-0.9146341681480408,11.280488014221191,0.5481958630527818,0.5191662054208275,4.7278902425107
1727362501.649166,521.0,497.0,563.0,491.0,668.0,467.0,721.0,683.0,637.0,583.0,589.0,513.0,-0.005859375,0.001953125,1.048828125,-0.6097561120986938,8.59756088256836,0.5481958630527818,0.5191662054208275,4.7278902425107
1727362501.6511595,521.0,497.0,563.0,491.0,668.0,467.0,721.0,683.0,637.0,583.0,589.0,513.0,0.01220703125,0.0654296875,1.00244140625,-2.743902444839477,2.865853786468506,0.5504357774607704,0.5295211697574893,4.811276776034237
1727362501.7341578,521.0,497.0,563.0,491.0,668.0,467.0,721.0,683.0,637.0,583.0,589.0,513.0,0.0283203125,0.076171875,0.98974609375,-5.731707572937012,9.268293380737305,0.7275112981455065,0.6353960057061342,5.886196248216834
1727362501.7411327,520.0,497.0,563.0,491.0,668.0,468.0,721.0,684.0,637.0,582.0,588.0,512.0,0.03173828125,0.07177734375,0.96484375,-10.731707572937012,15.85365867614746,0.7251248216833096,0.6572461055634808,6.046216162624821
1727362501.743127,520.0,497.0,563.0,491.0,668.0,468.0,721.0,684.0,637.0,582.0,588.0,512.0,0.03173828125,0.07177734375,0.96484375,-10.731707572937012,15.85365867614746,0.7251248216833096,0.6572461055634808,6.046216162624821
1727362501.7520206,520.0,497.0,563.0,491.0,668.0,468.0,721.0,684.0,637.0,582.0,588.0,512.0,0.02001953125,0.04541015625,0.921875,-17.012195587158203,29.024391174316406,0.7285799572039944,0.6963370756062768,6.142991654778887
1727362501.7558277,520.0,497.0,563.0,491.0,668.0,468.0,721.0,684.0,637.0,582.0,588.0,512.0,0.0107421875,0.0693359375,0.9052734375,-16.463415145874023,35.060977935791016,0.7251321540656206,0.7273813409415122,6.1496841797432245
1727362501.759802,520.0,497.0,563.0,491.0,668.0,468.0,721.0,684.0,637.0,582.0,588.0,512.0,-0.15673828125,0.13134765625,0.865234375,-13.170732498168944,49.75609970092773,0.7343336376604851,0.7710572467902996,6.178917132667618
1727362501.7631648,522.0,497.0,564.0,490.0,669.0,467.0,727.0,688.0,658.0,605.0,612.0,591.0,-0.2490234375,-0.05810546875,1.0087890625,-9.02439022064209,4.512195110321045,0.7343336376604851,0.7710572467902996,6.178917132667618
1727362501.7667882,522.0,497.0,564.0,490.0,669.0,467.0,727.0,688.0,658.0,605.0,612.0,591.0,-0.2490234375,-0.05810546875,1.0087890625,-9.02439022064209,4.512195110321045,0.7355415406562055,0.7894516405135522,6.154151754636235
1727362501.7713194,522.0,497.0,564.0,490.0,669.0,467.0,727.0,688.0,658.0,605.0,612.0,591.0,-0.0869140625,0.01611328125,0.98388671875,-26.89024543762207,-8.841464042663574,0.7355561911554922,0.8262343651925821,6.158628273894437
1727362501.9347136,522.0,497.0,564.0,490.0,669.0,467.0,727.0,688.0,658.0,605.0,612.0,591.0,-0.07568359375,-0.0888671875,0.9951171875,-24.024391174316406,-6.341463565826416,0.489158059914408,0.495931997146933,4.336429215406562
1727362501.941691,522.0,497.0,564.0,490.0,669.0,467.0,727.0,688.0,658.0,605.0,612.0,591.0,-0.05126953125,-0.01171875,1.09033203125,-19.024391174316406,0.1829268336296081,0.5498934950071327,0.6810901283880172,5.673023780313838
1727362501.9436834,515.0,482.0,560.0,475.0,660.0,448.0,717.0,678.0,650.0,593.0,604.0,577.0,-0.05126953125,-0.01171875,1.09033203125,-19.024391174316406,0.1829268336296081,0.5498934950071327,0.6810901283880172,5.673023780313838
1727362501.9466734,515.0,482.0,560.0,475.0,660.0,448.0,717.0,678.0,650.0,593.0,604.0,577.0,-0.0283203125,-0.04443359375,1.01806640625,-11.768293380737305,9.87804889678955,0.5601270042796006,0.75354817403709,6.19366482168331
1727362501.949663,515.0,482.0,560.0,475.0,660.0,448.0,717.0,678.0,650.0,593.0,604.0,577.0,-0.11572265625,-0.00927734375,0.97900390625,-10.0,10.182927131652832,0.5601270042796006,0.75354817403709,6.19366482168331
1727362501.9516578,515.0,482.0,560.0,475.0,660.0,448.0,717.0,678.0,650.0,593.0,604.0,577.0,-0.09326171875,-0.0224609375,1.029296875,-10.670731544494627,-2.378048896789551,0.5877168188302425,0.7834571041369474,6.626863737517832
1727362501.9532156,503.0,455.0,547.0,440.0,643.0,336.0,716.0,675.0,655.0,594.0,616.0,610.0,-0.0380859375,-0.076171875,1.92724609375,-19.268293380737305,236.7073211669922,0.5877168188302425,0.7834571041369474,6.626863737517832
1727362502.0336616,503.0,455.0,547.0,440.0,643.0,336.0,716.0,675.0,655.0,594.0,616.0,610.0,0.06396484375,0.07080078125,2.51513671875,2.195122003555298,269.0853576660156,1.5373215834522114,1.02760119828816,13.751567203994297
1727362502.0406344,503.0,455.0,547.0,440.0,643.0,336.0,716.0,675.0,655.0,594.0,616.0,610.0,0.21142578125,-0.00537109375,2.81396484375,-4.329268455505371,344.5731811523437,1.609842838801712,1.1298892867332384,13.98720880171184
1727362502.042628,503.0,455.0,547.0,440.0,643.0,336.0,716.0,675.0,655.0,594.0,616.0,610.0,0.1416015625,0.18115234375,2.86572265625,-12.987805366516112,408.9634094238281,1.609842838801712,1.1298892867332384,13.98720880171184
1727362502.0456202,503.0,455.0,547.0,440.0,643.0,336.0,716.0,675.0,655.0,594.0,616.0,610.0,0.25830078125,0.1455078125,2.45458984375,-12.256097793579102,465.7926940917969,1.6259765905848789,1.198840656205421,13.998931241084168
1727362502.0486076,503.0,455.0,547.0,440.0,643.0,336.0,716.0,675.0,655.0,594.0,616.0,610.0,0.03076171875,0.3017578125,2.61865234375,-34.57316970825195,472.5,1.6259765905848789,1.198840656205421,13.998931241084168
1727362502.0506012,527.0,481.0,566.0,461.0,674.0,434.0,761.0,719.0,680.0,646.0,641.0,629.0,-0.0673828125,0.521484375,3.03515625,-4.512195110321045,479.2073364257813,1.630610313837375,1.2401986305278174,13.947646476462198
1727362502.0531456,527.0,481.0,566.0,461.0,674.0,434.0,761.0,719.0,680.0,646.0,641.0,629.0,5.61962890625,0.83056640625,-0.7763671875,131.89024353027344,65.30487823486328,1.630610313837375,1.2401986305278174,13.947646476462198
1727362502.1335316,527.0,481.0,566.0,461.0,674.0,434.0,761.0,719.0,680.0,646.0,641.0,629.0,1.68115234375,0.29052734375,2.041015625,122.86585998535156,-120.30487823486328,0.7232732952924394,1.6912204850213983,7.221831883024251
1727362502.140503,528.0,498.0,568.0,494.0,672.0,465.0,757.0,717.0,674.0,641.0,637.0,632.0,3.3681640625,-0.05517578125,0.53173828125,83.17073059082031,-213.0487823486328,0.548430356633381,1.419868901569187,5.680054807417975
1727362502.1424963,528.0,498.0,568.0,494.0,672.0,465.0,757.0,717.0,674.0,641.0,637.0,632.0,3.80615234375,-0.16064453125,-0.19140625,26.524391174316406,-234.3292694091797,0.548430356633381,1.419868901569187,5.680054807417975
1727362502.1454864,528.0,498.0,568.0,494.0,672.0,465.0,757.0,717.0,674.0,641.0,637.0,632.0,2.5390625,0.4775390625,0.421875,-4.5731706619262695,-239.93902587890625,0.4724466333808845,1.2198242510699002,4.980415549215407
1727362502.1499722,528.0,498.0,568.0,494.0,672.0,465.0,757.0,717.0,674.0,641.0,637.0,632.0,2.333984375,0.73095703125,0.6904296875,11.341464042663574,-251.5853729248047,0.40106,1.0577158487874467,4.260302225392297
1727362502.1509676,528.0,498.0,568.0,494.0,672.0,465.0,757.0,717.0,674.0,641.0,637.0,632.0,1.9052734375,0.740234375,0.8896484375,64.45121765136719,-281.8902587890625,0.40106,1.0577158487874467,4.260302225392297
1727362502.1532266,527.0,499.0,568.0,494.0,672.0,467.0,757.0,720.0,675.0,648.0,643.0,642.0,-0.82470703125,0.14306640625,1.04443359375,67.68292999267578,-279.69512939453125,0.40106,1.0577158487874467,4.260302225392297
1727362502.2336705,527.0,499.0,568.0,494.0,672.0,467.0,757.0,720.0,675.0,648.0,643.0,642.0,-0.95947265625,0.15771484375,0.89794921875,61.89024353027344,-251.1585388183593,-0.0079128245363766,-0.0045011982881597,-0.0124555064194008
1727362502.2406447,527.0,499.0,568.0,494.0,672.0,467.0,757.0,720.0,675.0,648.0,643.0,642.0,-1.19775390625,0.111328125,0.677734375,65.54878234863281,-215.85366821289065,0.0059223823109843,-0.0102420970042796,-0.0056027104136947
1727362502.2426386,527.0,499.0,568.0,494.0,672.0,467.0,757.0,720.0,675.0,648.0,643.0,642.0,-1.43798828125,0.015625,0.46728515625,68.04878234863281,-193.47561645507807,0.0059223823109843,-0.0102420970042796,-0.0056027104136947
1727362502.2466247,527.0,499.0,568.0,494.0,672.0,467.0,757.0,720.0,675.0,648.0,643.0,642.0,-1.7138671875,-0.06201171875,0.27392578125,71.58536529541016,-132.9268341064453,0.0035872039942938,0.0058513266761768,-0.0011239514978601
1727362502.2496145,527.0,499.0,568.0,494.0,672.0,467.0,757.0,720.0,675.0,648.0,643.0,642.0,-2.1416015625,-0.04833984375,0.06494140625,74.39024353027344,-56.82926940917969,0.0035872039942938,0.0058513266761768,-0.0011239514978601
1727362502.2563612,528.0,500.0,569.0,494.0,674.0,466.0,758.0,720.0,681.0,650.0,646.0,646.0,-11.63916015625,0.15234375,4.3837890625,-101.46341705322266,185.3048858642578,0.0128473181169757,0.0104569044222539,0.0169872895863052
1727362502.3341727,528.0,500.0,569.0,494.0,674.0,466.0,758.0,720.0,681.0,650.0,646.0,646.0,0.22900390625,-3.193359375,3.0615234375,-321.70733642578125,41.76829528808594,0.0035945363766048,0.0115946504992867,0.0034126390870185
1727362502.339154,528.0,500.0,569.0,494.0,674.0,466.0,758.0,720.0,681.0,650.0,646.0,646.0,-3.1015625,0.7412109375,0.044921875,-220.12196350097656,-241.89024353027344,0.0036311697574893,0.0001055920114122,0.0169421540656205
1727362502.3431404,522.0,487.0,563.0,482.0,664.0,457.0,741.0,695.0,668.0,635.0,630.0,643.0,0.33154296875,-1.80712890625,4.77392578125,-159.57318115234375,-192.8658599853516,-0.0021664764621968,0.0001092296718972,-0.0011480456490727
1727362502.3451338,522.0,487.0,563.0,482.0,664.0,457.0,741.0,695.0,668.0,635.0,630.0,643.0,1.01220703125,0.52880859375,2.869140625,-41.28048706054688,-24.268293380737305,-0.0009878887303851,-0.0044890584878744,-0.003425092724679
1727362502.349121,522.0,487.0,563.0,482.0,664.0,457.0,741.0,695.0,668.0,635.0,630.0,643.0,0.98583984375,-0.24853515625,0.791015625,2.6219513416290283,-19.512195587158203,-0.0009878887303851,-0.0044890584878744,-0.003425092724679
1727362502.3501174,522.0,487.0,563.0,482.0,664.0,457.0,741.0,695.0,668.0,635.0,630.0,643.0,-0.59326171875,0.97802734375,0.63525390625,-78.29268646240234,-4.695122241973877,0.0012959914407988,0.0115995007132667,-0.0169310128388017
1727362502.3534963,510.0,447.0,552.0,463.0,651.0,434.0,727.0,682.0,655.0,604.0,623.0,627.0,-0.2880859375,0.15185546875,1.287109375,-19.08536720275879,-46.76829528808594,0.0012959914407988,0.0115995007132667,-0.0169310128388017
1727362502.3562808,510.0,447.0,552.0,463.0,651.0,434.0,727.0,682.0,655.0,604.0,623.0,627.0,-0.1044921875,0.04296875,1.44775390625,-22.19512176513672,-19.20731735229492,-0.0010098716119828,-0.0033416119828815,-0.0282447218259629
1727362502.433546,510.0,447.0,552.0,463.0,651.0,434.0,727.0,682.0,655.0,604.0,623.0,627.0,-0.056640625,0.02978515625,1.3037109375,-24.69512176513672,16.40243911743164,0.0035945363766048,0.0058561911554921,0.0101610984308131
1727362502.4395251,510.0,447.0,552.0,463.0,651.0,434.0,727.0,682.0,655.0,604.0,623.0,627.0,-0.1064453125,0.06201171875,1.0712890625,-41.524391174316406,29.024391174316406,0.0058784165477888,-0.0021905278174037,-0.0033780599144079
1727362502.4405217,510.0,447.0,552.0,463.0,651.0,434.0,727.0,682.0,655.0,604.0,623.0,627.0,-0.2109375,-0.10595703125,0.76123046875,-40.3658561706543,11.52439022064209,0.0012813266761768,-0.0056365192582025,-0.0033987589158345
1727362502.4445083,510.0,447.0,552.0,463.0,651.0,434.0,727.0,682.0,655.0,604.0,623.0,627.0,-0.32470703125,-0.14453125,0.66455078125,-23.90243911743164,-11.64634132385254,0.0012813266761768,-0.0056365192582025,-0.0033987589158345
1727362502.447495,510.0,447.0,552.0,463.0,651.0,434.0,727.0,682.0,655.0,604.0,623.0,627.0,-0.19384765625,-0.15673828125,0.67333984375,-9.57317066192627,-33.719512939453125,0.0024305991440798,0.0024126248216833,-0.0170103994293865
1727362502.450485,510.0,447.0,552.0,463.0,651.0,434.0,727.0,682.0,655.0,604.0,623.0,627.0,-0.23046875,-0.1787109375,0.703125,12.19512176513672,-52.31707382202149,0.0024525820256776,0.0070121398002853,-0.0191795720399429
1727362502.4531,510.0,443.0,550.0,460.0,652.0,431.0,721.0,681.0,654.0,597.0,622.0,620.0,-0.1708984375,-0.03662109375,0.9482421875,-0.1219512224197387,35.853660583496094,0.0024525820256776,0.0070121398002853,-0.0191795720399429
1727362502.5336554,510.0,443.0,550.0,460.0,652.0,431.0,721.0,681.0,654.0,597.0,622.0,620.0,-0.1728515625,-0.099609375,0.95751953125,0.9146341681480408,32.560977935791016,0.0035578887303851,0.0047148074179743,-0.0215145934379457
1727362502.5398977,510.0,443.0,550.0,460.0,652.0,431.0,721.0,681.0,654.0,597.0,622.0,620.0,-0.16064453125,-0.078125,0.9755859375,7.439024448394775,28.475610733032227,0.0047144935805991,0.009309457917261,-0.012442853067047
1727362502.541891,510.0,443.0,550.0,460.0,652.0,431.0,721.0,681.0,654.0,597.0,622.0,620.0,-0.1591796875,-0.0546875,0.943359375,8.59756088256836,23.59756088256836,0.0047144935805991,0.009309457917261,-0.012442853067047
1727362502.5448809,510.0,443.0,550.0,460.0,652.0,431.0,721.0,681.0,654.0,597.0,622.0,620.0,-0.154296875,0.0185546875,0.92529296875,10.97560977935791,17.68292808532715,0.0001174037089871,-0.0044769329529243,-0.0146892582025677
1727362502.5478706,511.0,445.0,549.0,459.0,655.0,427.0,716.0,682.0,650.0,599.0,622.0,620.0,-0.17138671875,0.064453125,0.89501953125,5.182927131652832,8.963415145874023,0.0001174037089871,-0.0044769329529243,-0.0146892582025677
1727362502.5508616,511.0,445.0,549.0,459.0,655.0,427.0,716.0,682.0,650.0,599.0,622.0,620.0,-0.1748046875,0.0654296875,0.916015625,1.2195122241973877,4.512195110321045,0.0047364764621968,0.0012676034236804,-0.0192239087018544
1727362502.5562806,511.0,445.0,549.0,459.0,655.0,427.0,716.0,682.0,650.0,599.0,622.0,620.0,-0.1533203125,0.01220703125,1.025390625,5.853658676147461,37.07317352294922,0.0047218116975748,0.0047172325249643,-0.007961940085592
1727362502.634748,512.0,443.0,548.0,461.0,657.0,436.0,718.0,681.0,651.0,603.0,624.0,625.0,-0.19140625,-0.0068359375,0.93994140625,4.207317352294922,35.73170852661133,0.0001174037089871,0.0024186875891583,0.0146585164051355
1727362502.6427205,512.0,443.0,548.0,461.0,657.0,436.0,718.0,681.0,651.0,603.0,624.0,625.0,-0.19580078125,-0.02734375,0.95556640625,5.792683124542236,32.68292617797852,0.0012666761768901,-0.0010297289586305,-0.0145791440798858
1727362502.647705,512.0,443.0,548.0,461.0,657.0,436.0,718.0,681.0,651.0,603.0,624.0,625.0,-0.2021484375,-0.05419921875,0.96435546875,9.634146690368652,31.280488967895508,0.0024232810271041,0.0024186875891583,-0.0102366333808844
1727362502.6506937,512.0,443.0,548.0,461.0,657.0,436.0,718.0,681.0,651.0,603.0,624.0,625.0,-0.2021484375,-0.05419921875,0.96435546875,9.634146690368652,31.280488967895508,0.0001100855920114,0.0035649358059914,-0.0260196005706134
1727362502.651688,512.0,443.0,548.0,461.0,657.0,436.0,718.0,681.0,651.0,603.0,624.0,625.0,-0.2138671875,-0.02880859375,0.8564453125,13.170732498168944,26.09756088256836,0.0001100855920114,0.0035649358059914,-0.0260196005706134
1727362502.6541858,512.0,443.0,548.0,461.0,657.0,436.0,718.0,681.0,651.0,603.0,624.0,625.0,-0.22900390625,0.013671875,0.77978515625,13.109756469726562,21.64634132385254,0.0001100855920114,0.0035649358059914,-0.0260196005706134
1727362502.6581745,512.0,445.0,549.0,465.0,658.0,445.0,717.0,680.0,653.0,605.0,627.0,626.0,-0.18798828125,0.0087890625,1.08740234375,-0.1829268336296081,6.646341800689697,0.0001174037089871,0.0001201569186875,0.0034149358059914
1727362502.6601326,512.0,445.0,549.0,465.0,658.0,445.0,717.0,680.0,653.0,605.0,627.0,626.0,-0.20068359375,0.0048828125,1.08837890625,-0.9146341681480408,11.52439022064209,-0.0010245363766048,0.0001177175463623,0.0123982025677603
1727362502.7336547,512.0,445.0,549.0,465.0,658.0,445.0,717.0,680.0,653.0,605.0,627.0,626.0,-0.20361328125,0.009765625,1.08935546875,-1.829268336296081,16.463415145874023,0.0081916119828815,-0.0010297289586305,-0.0079622967189728
1727362502.739633,512.0,445.0,549.0,465.0,658.0,445.0,717.0,680.0,653.0,605.0,627.0,626.0,-0.20947265625,0.01220703125,1.05859375,-2.134146451950073,18.04878044128418,0.0035505563480741,-0.0021832382310984,0.0011288445078459
1727362502.7426243,512.0,445.0,549.0,465.0,658.0,445.0,717.0,680.0,653.0,605.0,627.0,626.0,-0.2109375,0.02734375,1.0224609375,-2.073170661926269,20.670732498168945,0.0001247360912981,0.0047135948644793,0.010175092724679
1727362502.745613,512.0,445.0,549.0,465.0,658.0,445.0,717.0,680.0,653.0,605.0,627.0,626.0,-0.224609375,0.01611328125,0.94580078125,-2.743902444839477,20.426830291748047,0.0024305991440798,0.0001152924393723,0.014656005706134
1727362502.7486029,512.0,444.0,549.0,467.0,659.0,448.0,720.0,682.0,655.0,609.0,627.0,627.0,-0.2392578125,0.0068359375,0.85498046875,-4.0853657722473145,17.13414764404297,0.0024305991440798,0.0001152924393723,0.014656005706134
1727362502.7505963,512.0,444.0,549.0,467.0,659.0,448.0,720.0,682.0,655.0,609.0,627.0,627.0,-0.25146484375,-0.0078125,0.81494140625,-5.182927131652832,10.792683601379396,0.0012740085592011,-0.0067742510699001,-0.0035090299572039
1727362502.7533083,512.0,444.0,549.0,467.0,659.0,448.0,720.0,682.0,655.0,609.0,627.0,627.0,-0.23876953125,-0.0224609375,0.91064453125,-2.6219513416290283,-24.817073822021484,0.0012740085592011,-0.0067742510699001,-0.0035090299572039
1727362502.7564335,512.0,444.0,549.0,467.0,659.0,448.0,720.0,682.0,655.0,609.0,627.0,627.0,-0.2158203125,-0.0126953125,0.99072265625,-0.4878048896789551,-25.060976028442383,0.0035652211126961,0.0058634664764621,0.0011052068473609
1727362502.8336651,512.0,450.0,550.0,471.0,660.0,452.0,722.0,680.0,655.0,609.0,629.0,623.0,-0.1982421875,0.00244140625,1.0537109375,-0.3048780560493469,-23.10975646972656,0.0070130242510699,0.0058646790299572,-0.0011081027104136
1727362502.8406377,512.0,450.0,550.0,471.0,660.0,452.0,722.0,680.0,655.0,609.0,629.0,623.0,-0.18359375,-0.00048828125,1.1083984375,-0.3658536672592163,-21.524391174316406,0.0081842796005706,-0.0056292296718972,-0.0033591583452211
1727362502.8426316,512.0,450.0,550.0,471.0,660.0,452.0,722.0,680.0,655.0,609.0,629.0,623.0,-0.1865234375,0.0048828125,1.1181640625,-1.829268336296081,-16.40243911743164,0.0081842796005706,-0.0056292296718972,-0.0033591583452211
1727362502.846619,512.0,450.0,550.0,471.0,660.0,452.0,722.0,680.0,655.0,609.0,629.0,623.0,-0.1767578125,-0.0078125,1.0673828125,-2.4390244483947754,-10.0,-0.0067928673323823,0.0024174750356633,0.0055910128388017
1727362502.8486114,512.0,450.0,550.0,471.0,660.0,452.0,722.0,680.0,655.0,609.0,629.0,623.0,-0.1943359375,-0.00732421875,0.9775390625,-2.9268293380737305,-5.97560977935791,-0.0067928673323823,0.0024174750356633,0.0055910128388017
1727362502.850605,512.0,450.0,550.0,471.0,660.0,452.0,722.0,680.0,655.0,609.0,629.0,623.0,-0.20068359375,-0.03125,0.92822265625,2.987804889678955,-6.036585330963135,0.0093115691868758,0.0047160199714693,-0.0056805420827389
1727362502.8530955,507.0,446.0,546.0,469.0,658.0,446.0,721.0,676.0,653.0,605.0,626.0,625.0,-0.24169921875,-0.02734375,0.9091796875,9.085366249084473,-5.060975551605225,0.0093115691868758,0.0047160199714693,-0.0056805420827389
1727362502.9335344,507.0,446.0,546.0,469.0,658.0,446.0,721.0,676.0,653.0,605.0,626.0,625.0,-0.19384765625,-0.052734375,0.890625,13.90243911743164,-10.0,0.0058564336661911,0.0012688159771754,-0.0033637089871611
1727362502.9405098,507.0,446.0,546.0,469.0,658.0,446.0,721.0,676.0,653.0,605.0,626.0,625.0,-0.25341796875,-0.07568359375,0.9072265625,19.7560977935791,-16.463415145874023,-0.0045016547788873,0.009313095577746,-0.0169566619115549
1727362502.9425037,507.0,446.0,546.0,469.0,658.0,446.0,721.0,676.0,653.0,605.0,626.0,625.0,-0.2060546875,-0.05322265625,0.8681640625,27.19512176513672,-22.926830291748047,-0.0045016547788873,0.009313095577746,-0.0169566619115549
1727362502.944496,507.0,446.0,546.0,469.0,658.0,446.0,721.0,676.0,653.0,605.0,626.0,625.0,-0.216796875,-0.02001953125,0.93896484375,34.39024353027344,-28.658536911010746,-0.0045016547788873,0.009313095577746,-0.0169566619115549
1727362502.9484825,507.0,446.0,546.0,469.0,658.0,446.0,721.0,676.0,653.0,605.0,626.0,625.0,-0.21435546875,0.041015625,0.9541015625,39.878047943115234,-31.463415145874023,0.0012520256776034,-0.0021820256776034,0.0033918972895863
1727362502.949873,507.0,446.0,546.0,469.0,658.0,446.0,721.0,676.0,653.0,605.0,626.0,625.0,-0.18701171875,0.0625,1.14453125,45.42683029174805,-30.30487823486328,0.0036018544935805,0.0035661483594864,-0.0102108416547788
1727362502.9719856,504.0,439.0,541.0,457.0,651.0,433.0,717.0,678.0,652.0,600.0,623.0,623.0,-0.20166015625,0.001953125,1.1123046875,52.560977935791016,18.29268264770508,0.0001027532097004,0.0081632239657631,0.0124590442225392
1727362503.0536578,504.0,439.0,541.0,457.0,651.0,433.0,717.0,678.0,652.0,600.0,623.0,623.0,-0.19677734375,-0.0107421875,1.14501953125,60.48780822753906,24.268293380737305,-0.0033597146932952,0.0116177032810271,-0.0057014407988587
1727362503.0606306,504.0,439.0,541.0,457.0,651.0,433.0,717.0,678.0,652.0,600.0,623.0,623.0,-0.16650390625,0.02490234375,1.26123046875,65.9756088256836,34.45122146606445,0.0069983737517831,0.0012748787446504,-0.0101708559201141
1727362503.0626235,503.0,447.0,542.0,457.0,649.0,430.0,710.0,671.0,650.0,594.0,619.0,618.0,-0.23046875,0.00537109375,1.41796875,75.18292999267578,50.73170852661133,0.0069983737517831,0.0012748787446504,-0.0101708559201141
1727362503.0656166,503.0,447.0,542.0,457.0,649.0,430.0,710.0,671.0,650.0,594.0,619.0,618.0,-0.2158203125,0.04736328125,1.56982421875,84.8780517578125,73.9024429321289,0.0069983737517831,0.0070169900142653,-0.0102153922967189
1727362503.0686045,503.0,447.0,542.0,457.0,649.0,430.0,710.0,671.0,650.0,594.0,619.0,618.0,-0.3271484375,-0.04638671875,1.845703125,96.5243911743164,105.24390411376952,0.0069983737517831,0.0070169900142653,-0.0102153922967189
1727362503.0715964,516.0,484.0,552.0,477.0,661.0,454.0,733.0,689.0,666.0,621.0,630.0,637.0,-5.7236328125,2.86474609375,0.95166015625,485.4878234863281,-37.560977935791016,0.0035285734664764,0.0047196576319543,0.010168002853067
1727362503.073777,516.0,484.0,552.0,477.0,661.0,454.0,733.0,689.0,666.0,621.0,630.0,637.0,-3.39013671875,-2.4501953125,-1.8857421875,89.756103515625,-327.6219482421875,0.0035285734664764,0.0047196576319543,0.010168002853067
1727362503.1310298,516.0,484.0,552.0,477.0,661.0,454.0,733.0,689.0,666.0,621.0,630.0,637.0,-4.185546875,-2.296875,-0.70947265625,-76.21951293945312,-332.5609741210937,0.0093042368045649,0.0047184450784593,-0.0124547075606276
1727362503.1736546,516.0,484.0,552.0,477.0,661.0,454.0,733.0,689.0,666.0,621.0,630.0,637.0,-4.2421875,-1.89599609375,-0.54052734375,-124.63414764404295,-316.3414611816406,0.0139379600570613,0.0047123823109843,0.0102126818830242
1727362503.1797369,516.0,484.0,552.0,477.0,661.0,454.0,733.0,689.0,666.0,621.0,630.0,637.0,-4.08642578125,-1.4541015625,-0.34228515625,-182.6219482421875,-274.8780517578125,0.0035725392296718,0.0024138373751783,-0.0214073751783166
1727362503.23362,516.0,484.0,552.0,477.0,661.0,454.0,733.0,689.0,666.0,621.0,630.0,637.0,-3.79541015625,-1.25048828125,-0.171875,-245.2439117431641,-231.3414764404297,0.0001174037089871,0.0035600713266761,-0.014724607703281
1727362503.240596,516.0,484.0,552.0,477.0,661.0,454.0,733.0,689.0,666.0,621.0,630.0,637.0,-3.23095703125,-0.78662109375,-0.07958984375,-326.2195129394531,-188.29269409179688,0.0001320684736091,-0.0033319115549215,-0.003455092724679
1727362503.2435856,521.0,497.0,559.0,489.0,668.0,469.0,751.0,709.0,668.0,639.0,641.0,653.0,-3.23095703125,-0.78662109375,-0.07958984375,-326.2195129394531,-188.29269409179688,0.0001320684736091,-0.0033319115549215,-0.003455092724679
1727362503.246576,521.0,497.0,559.0,489.0,668.0,469.0,751.0,709.0,668.0,639.0,641.0,653.0,-0.94677734375,0.9765625,1.2548828125,-210.3658599853516,280.6097717285156,0.0024232810271041,0.0035637089871611,-0.0124522967189728
1727362503.248569,526.0,502.0,563.0,495.0,673.0,473.0,752.0,711.0,672.0,643.0,643.0,655.0,0.677734375,0.162109375,1.1904296875,-38.29268264770508,353.9024353027344,0.0024232810271041,0.0035637089871611,-0.0124522967189728
1727362503.2495668,526.0,502.0,563.0,495.0,673.0,473.0,752.0,711.0,672.0,643.0,643.0,655.0,2.125,0.9072265625,0.470703125,-15.121952056884766,297.6219482421875,0.0024232810271041,0.0035637089871611,-0.0124522967189728
1727362503.3336632,525.0,502.0,563.0,496.0,673.0,474.0,753.0,715.0,673.0,643.0,642.0,653.0,1.62451171875,0.673828125,0.21044921875,49.8780517578125,284.69512939453125,0.0081842796005706,0.0035600713266761,-0.0010866619115549
1727362503.3406367,525.0,502.0,563.0,496.0,673.0,474.0,753.0,715.0,673.0,643.0,642.0,653.0,1.54248046875,0.640625,0.1171875,61.89024353027344,294.81707763671875,0.0001100855920114,0.0104581169757489,0.0056680456490727
1727362503.3426292,525.0,502.0,563.0,496.0,673.0,474.0,753.0,715.0,673.0,643.0,642.0,653.0,2.232421875,0.66064453125,1.27880859375,80.79268646240234,67.68292999267578,0.0001100855920114,0.0104581169757489,0.0056680456490727
1727362503.3456194,525.0,502.0,563.0,496.0,673.0,474.0,753.0,715.0,673.0,643.0,642.0,653.0,8.955078125,1.291015625,-0.49169921875,111.15853881835938,-242.01220703125,0.0058857346647646,0.0035612838801711,0.0100886162624821
1727362503.3486094,525.0,502.0,563.0,496.0,673.0,474.0,753.0,715.0,673.0,643.0,642.0,653.0,4.18408203125,0.5185546875,4.5888671875,228.9634246826172,-686.5244140625,0.0058857346647646,0.0035612838801711,0.0100886162624821
1727362503.350603,525.0,502.0,563.0,496.0,673.0,474.0,753.0,715.0,673.0,643.0,642.0,653.0,4.18408203125,0.5185546875,4.5888671875,228.9634246826172,-686.5244140625,0.0035798716119828,-0.0033319115549215,-0.0146683166904422
1727362503.3537958,523.0,474.0,561.0,464.0,668.0,434.0,752.0,720.0,677.0,651.0,646.0,653.0,-0.08447265625,-1.7255859375,2.47021484375,-4.695122241973877,-146.8292694091797,0.0035798716119828,-0.0033319115549215,-0.0146683166904422
1727362503.4367142,523.0,474.0,561.0,464.0,668.0,434.0,752.0,720.0,677.0,651.0,646.0,653.0,0.72802734375,0.0,1.5634765625,-9.390244483947754,27.865854263305664,-0.0750321540656205,0.557658844507846,0.7674074893009987
1727362503.4426928,523.0,474.0,561.0,464.0,668.0,434.0,752.0,720.0,677.0,651.0,646.0,653.0,-0.15478515625,0.1328125,1.26416015625,-12.682927131652832,60.853660583496094,-0.1280304707560627,0.7461865335235379,0.9630810699001427
1727362503.445683,504.0,453.0,545.0,444.0,646.0,374.0,731.0,686.0,660.0,634.0,634.0,648.0,-0.14453125,0.70458984375,1.31494140625,5.365853786468506,87.56097412109375,-0.169499457917261,1.1519681597717546,1.205841754636234
1727362503.4496698,504.0,453.0,545.0,444.0,646.0,374.0,731.0,686.0,660.0,634.0,634.0,648.0,-0.173828125,0.46435546875,0.86279296875,-20.18292808532715,97.68292999267578,-0.169499457917261,1.1519681597717546,1.205841754636234
1727362503.4506664,504.0,453.0,545.0,444.0,646.0,374.0,731.0,686.0,660.0,634.0,634.0,648.0,-0.34033203125,-0.2568359375,0.35791015625,-31.524391174316406,43.29268264770508,0.0155769900142653,0.8049661768901569,2.0406268188302428
1727362503.4530702,504.0,453.0,545.0,444.0,646.0,374.0,731.0,686.0,660.0,634.0,634.0,648.0,-0.0048828125,0.29833984375,1.1904296875,19.14634132385254,-91.09756469726562,0.0155769900142653,0.8049661768901569,2.0406268188302428
1727362503.4562256,504.0,453.0,545.0,444.0,646.0,374.0,731.0,686.0,660.0,634.0,634.0,648.0,-0.271484375,-0.0517578125,1.17626953125,9.939024925231934,-57.621952056884766,0.098792182596291,0.8454715977175464,4.032794893009986
1727362503.5336175,504.0,455.0,544.0,445.0,646.0,399.0,713.0,679.0,649.0,612.0,618.0,635.0,-0.0126953125,0.10009765625,1.1259765625,2.195122003555298,-27.926830291748047,1.2570389443651928,3.0144566048502144,10.726659215406563
1727362503.5419185,504.0,455.0,544.0,445.0,646.0,399.0,713.0,679.0,649.0,612.0,618.0,635.0,0.0458984375,0.04248046875,1.07861328125,-4.817073345184326,-14.57317066192627,1.5026248787446506,1.233855164051355,8.60532805991441
1727362503.5481513,504.0,455.0,544.0,445.0,646.0,399.0,713.0,679.0,649.0,612.0,618.0,635.0,-0.11865234375,-0.03466796875,0.97265625,6.036585330963135,5.853658676147461,1.4081795577746077,0.7934534379457918,7.831994094151213
1727362503.5704844,504.0,455.0,544.0,445.0,646.0,399.0,713.0,679.0,649.0,612.0,618.0,635.0,-0.11865234375,-0.00537109375,0.9736328125,9.14634132385254,3.963414669036865,1.0331645506419402,-0.1264531241084165,6.533997417974323
1727362503.6336193,508.0,466.0,550.0,456.0,652.0,424.0,701.0,679.0,646.0,601.0,612.0,615.0,-0.109375,0.0107421875,0.98046875,0.4878048896789551,-5.182927131652832,0.6906906990014265,1.4803518259629105,6.49770934379458
1727362503.640594,508.0,466.0,550.0,456.0,652.0,424.0,701.0,679.0,646.0,601.0,612.0,615.0,-0.10595703125,0.0087890625,0.9775390625,-0.2439024448394775,-7.134146690368652,0.570675634807418,1.2698842653352356,6.076667403708988
1727362503.6435835,508.0,466.0,550.0,456.0,652.0,424.0,701.0,679.0,646.0,601.0,612.0,615.0,-0.1083984375,0.01513671875,0.98828125,-1.158536672592163,-8.292682647705078,0.570675634807418,1.2698842653352356,6.076667403708988
1727362503.64757,508.0,466.0,550.0,456.0,652.0,424.0,701.0,679.0,646.0,601.0,612.0,615.0,-0.1083984375,0.01513671875,0.98828125,-1.158536672592163,-8.292682647705078,0.5210591583452211,1.142233338088445,5.705825848787447
1727362503.6495645,508.0,466.0,550.0,456.0,652.0,424.0,701.0,679.0,646.0,601.0,612.0,615.0,-0.10498046875,0.0146484375,0.99755859375,-2.317073345184326,-8.780488014221191,0.5210591583452211,1.142233338088445,5.705825848787447
1727362503.6505606,508.0,466.0,550.0,456.0,652.0,424.0,701.0,679.0,646.0,601.0,612.0,615.0,-0.10205078125,-0.00390625,1.00048828125,-3.170731782913208,-8.59756088256836,0.496843880171184,0.989314236804565,5.305903965763196
1727362503.653551,513.0,476.0,554.0,468.0,657.0,440.0,708.0,680.0,645.0,599.0,611.0,606.0,-0.06591796875,-0.0048828125,0.990234375,-1.4634146690368652,-4.5731706619262695,0.496843880171184,0.989314236804565,5.305903965763196
1727362503.6565518,513.0,476.0,554.0,468.0,657.0,440.0,708.0,680.0,645.0,599.0,611.0,606.0,-0.07080078125,-0.0048828125,0.98828125,-1.2195122241973877,-3.1097562313079834,0.5119089728958631,0.87894302425107,4.948551155492154
1727362503.7325175,513.0,476.0,554.0,468.0,657.0,440.0,708.0,680.0,645.0,599.0,611.0,606.0,-0.0869140625,-0.00732421875,1.00146484375,-0.1829268336296081,-1.6463415622711182,0.4034024964336662,0.6488049928673324,3.094121754636234
1727362503.7385,516.0,486.0,557.0,477.0,663.0,454.0,707.0,684.0,644.0,596.0,611.0,589.0,-0.0908203125,-0.01220703125,1.00048828125,1.4024391174316406,-1.2804877758026123,0.3826863338088445,0.6510865477888731,3.055638202567761
1727362503.7404926,516.0,486.0,557.0,477.0,663.0,454.0,707.0,684.0,644.0,596.0,611.0,589.0,-0.0888671875,-0.0009765625,0.9951171875,2.073170661926269,-1.097561001777649,0.3596936091298146,0.6568128673323824,3.001343552068474
1727362503.7444792,516.0,486.0,557.0,477.0,663.0,454.0,707.0,684.0,644.0,596.0,611.0,589.0,-0.0908203125,0.00048828125,0.99755859375,2.134146451950073,-0.5487805008888245,0.3596936091298146,0.6568128673323824,3.001343552068474
